"Shalehills,"	2012	:	input	for	MTCLIM	v4.3				
MTCLIM	v4.3	OUTPUT	FILE	:	Mon	Jan	16	16:32:50	2012	
	yday	Tmax	Tmin	Tday	prcp	VPD	srad	daylen	SoilW	SoilT
		(degC)	(degC)	(degC)	(cm)	(Pa)	(Wm-2)	(s)	(%)	(deg C)
2008	1	4.44	-2.78	2.46	0.18	162.1754386	107.3576895	32928	21.1425	2.6333
2008	2	3.89	-5.56	1.29	0.02	187.1368421	242.3626217	32971	21.2499	2.3716
2008	3	-3.33	-11.11	-5.47	0	101.5438596	153.795681	33017	21.607	2.0111
2008	4	-4.44	-10.56	-6.13	0	79.34736842	210.6844795	33066	21.0615	1.4889
2008	5	3.33	-9.44	-0.18	0.07	213.3263158	184.7731816	33119	20.5872	0.3346
2008	6	5.56	-0.56	3.88	0.02	153.9578947	216.999156	33175	20.2551	0.271
2008	7	7.78	5	7.01	0.06	91.50175439	201.3661912	33234	20.7133	0.8296
2008	8	18.89	6.11	15.38	0	564.2736842	215.6980118	33296	21.4808	2.3995
2008	9	19.44	8.33	16.39	0.06	537.6280702	150.879084	33362	21.2799	4.9207
2008	10	11.67	-0.56	8.31	0.05	356.7017544	204.7227424	33431	21.1371	6.138
2008	11	7.78	-0.56	5.49	2.31	221.4175439	101.7295765	33503	21.0297	5.4222
2008	12	10.56	2.78	8.42	0	250.8	220.641115	33579	21.444	4.5526
2008	13	6.11	-2.22	3.82	0	199.2421053	135.333987	33657	22.2575	4.5511
2008	14	3.89	-2.22	2.21	0.12	138.4210526	111.5724702	33738	21.3716	3.7009
2008	15	2.78	-2.78	1.25	0	119.7754386	163.3214476	33822	21.0208	3.1753
2008	16	-1.11	-2.78	-1.57	0	32.70175439	175.9470937	33909	20.9117	3.0431
2008	17	0	-3.33	-0.92	0.77	65.66315789	56.70431483	33999	20.6809	2.2758
2008	18	2.22	-2.22	1	0.13	96.6877193	269.1626188	34092	20.569	2.0973
2008	19	2.78	-6.67	0.18	0	173.9508772	105.2589581	34187	20.4401	1.8314
2008	20	-1.11	-12.22	-4.17	0	146.877193	205.0519469	34285	21.3077	1.8171
2008	21	-10	-13.89	-11.07	0	37.60701754	306.8234165	34386	20.9728	1.1455
2008	22	-5	-13.89	-7.44	0	98.44210526	78.45701528	34489	20.259	0.3387
2008	23	2.78	-6.11	0.33	0	167.4526316	314.5387484	34595	19.4908	-0.1162
2008	24	-2.78	-7.78	-4.15	0	76.32280702	179.3039219	34703	19.3593	-0.245
2008	25	-2.22	-10	-4.36	0	109.6210526	321.8284598	34814	19.4772	-0.3292
2008	26	-3.89	-10	-5.57	0.04	82.45614035	144.0329554	34926	18.8844	-0.3207
2008	27	-2.78	-8.33	-4.31	0	82.82807018	171.1772159	35042	18.1879	-0.2226
2008	28	-0.56	-5	-1.78	0	80.60350877	214.1984129	35159	18.5252	-0.4557
2008	29	2.22	-2.22	1	1.4	96.6877193	60.02176994	35278	19.291	-0.377
2008	30	5.56	-1.11	3.72	0.5	164.3087719	331.9026836	35400	19.7642	-0.2071
2008	31	0.56	-8.89	-2.04	0	149.9578947	310.5629592	35523	22.3099	-0.0573
2008	32	1.11	-7.78	-1.33	2.72	149.9017544	46.30497349	35649	22.1431	0.0135
2008	33	2.78	-2.22	1.4	0	110.245614	73.32927102	35776	21.2792	0.1383
2008	34	1.11	-5.56	-0.72	0	123.1789474	260.4022003	35905	22.4355	0.3227
2008	35	6.11	-5	3.06	0.03	238.077193	38.36863137	36036	21.8953	0.2484
2008	36	5	0.56	3.78	1.03	115.4596491	80.53543089	36169	22.1062	0.405
2008	37	13.33	3.33	10.58	1.38	351.2280702	78.46806049	36303	22.1916	0.4597
2008	38	16.67	1.67	12.54	0.01	536.0421053	45.74489572	36440	23.2862	0.9713
2008	39	3.33	-1.11	2.11	0.06	103.8526316	123.2830467	36577	23.1894	3.2956
2008	40	2.22	-2.22	1	0.78	96.6877193	138.0326833	36716	21.9435	2.2648
2008	41	4.44	-1.67	2.76	0.21	143.4385965	181.0377947	36857	21.5883	1.8111
2008	42	-1.11	-16.67	-5.39	0	170.5473684	361.1028676	36999	21.3417	1.3017
2008	43	-8.89	-16.67	-11.03	1.95	68.41403509	67.61667071	37143	21.0272	0.816
2008	44	-3.33	-11.67	-5.63	0.53	106.2385965	88.37750422	37287	20.3899	0.4569
2008	45	0.56	-7.78	-1.74	0	138.5403509	386.4039751	37433	20.4473	0.2723
2008	46	2.22	-7.78	-0.53	0	173.5438596	48.00670552	37581	20.6495	0.0949
2008	47	2.78	-11.11	-1.04	0	213.5157895	360.9479711	37729	21.7276	0.3752
2008	48	2.22	-10.56	-1.29	0.58	197.9649123	113.6486708	37879	21.5778	0.5089
2008	49	8.89	-0.56	6.29	0.09	257.7403509	149.1559073	38029	22.0868	0.7524
2008	50	8.33	-4.44	4.82	0	295.9298246	268.2594484	38181	22.8822	0.8765
2008	51	-1.11	-10	-3.56	0	128.9964912	278.4670527	38334	23.2016	0.7065
2008	52	-3.89	-12.78	-6.33	0.01	106.4491228	408.2062515	38487	21.8117	0.4298
2008	53	-2.22	-12.78	-5.13	1.06	132.2526316	81.46348533	38642	21.1364	-0.0571
2008	54	-2.78	-5.56	-3.54	0.06	46.58245614	206.2048044	38798	20.6123	-0.0819
2008	55	1.67	-8.89	-1.24	0	172.5333333	423.5156852	38954	20.7853	-0.0086
2008	56	5	-8.89	1.18	0	247.7824561	333.055432	39111	20.8561	-0.1338
2008	57	2.78	-5	0.64	0.8	153.2701754	48.759836	39269	21.0968	0.1372
2008	58	1.67	-3.33	0.29	0	102.5754386	224.413843	39428	21.7383	0.0682
2008	59	-2.22	-11.67	-4.82	1.54	124.0421053	367.6338697	39587	22.816	0.2247
2008	60	1.67	-12.22	-2.15	0.38	197.9789474	241.4387501	39747	21.9859	-0.0027
2008	61	1.67	-5.56	-0.32	0	135.3192982	267.2369008	39907	21.054	-0.3438
2008	62	4.44	-5.56	1.69	0	200.9473684	350.9771139	40068	20.2656	-0.2307
2008	63	15.56	1.67	11.74	4.65	483.3684211	414.2868009	40230	20.6655	-0.403
2008	64	7.78	1.67	6.1	1.32	176.9894737	20.58868093	40392	20.8356	-0.1837
2008	65	4.44	-2.78	2.46	0	162.1754386	93.01013439	40555	22.8649	-0.0264
2008	66	7.78	-2.78	4.88	1.4	257.2491228	421.6082568	40718	24.4779	0.4275
2008	67	7.22	-1.11	4.93	1.64	213.8035088	111.9551392	40882	22.8126	0.5381
2008	68	3.33	-7.22	0.43	0	192.8140351	38.96711007	41046	22.6999	1.47
2008	69	0	-6.67	-1.83	0	114.4140351	427.5723125	41210	23.1706	1.4686
2008	70	6.11	-3.89	3.36	0	223.8807018	307.5047976	41375	23.1051	1.5206
2008	71	6.11	1.11	4.74	0.01	136.2807018	266.7002889	41540	22.0417	0.9588
2008	72	4.44	-3.33	2.31	0	170.8210526	151.646709	41705	21.7589	1.038
2008	73	13.33	-3.33	8.75	0.31	456.6035088	411.4743253	41870	21.6052	1.986
2008	74	15	3.89	11.94	0.04	414.0701754	323.0455086	42036	21.4121	1.8045
2008	75	10	1.11	7.56	0	265.5368421	247.5309227	42202	21.3176	2.8376
2008	76	5.56	-3.89	2.96	0	208.5403509	163.6050793	42368	21.8985	4.2072
2008	77	7.78	-3.89	4.57	0.35	272.2807018	462.9329948	42534	22.0656	4.5548
2008	78	5.56	2.22	4.64	1.48	93.68421053	53.51101848	42701	21.6621	3.2693
2008	79	12.78	1.67	9.72	0	362.0140351	76.81797187	42867	21.4542	3.7647
2008	80	3.89	-2.78	2.06	0	147.677193	336.8751888	43033	22.3855	3.3654
2008	81	6.11	-2.78	3.67	1.19	207.922807	468.9779398	43200	23.1869	4.1513
2008	82	5.56	-6.11	2.35	0	235.8736842	285.277683	43366	22.3073	4.0091
2008	83	6.11	-5.56	2.9	0	244.554386	510.7787885	43533	21.8986	4.0603
2008	84	5.56	-4.44	2.81	0	216	376.0483535	43699	22.1158	2.7133
2008	85	9.44	-3.89	5.78	0	324.4350877	479.0154337	43865	22.7106	2.7688
2008	86	12.22	1.67	9.32	0.34	339.4175439	323.6223883	44032	22.056	2.3586
2008	87	6.67	2.22	5.44	0.4	128.1684211	57.97117517	44198	21.784	3.636
2008	88	7.22	-2.78	4.47	0	240.3929825	70.15533215	44363	21.676	4.7758
2008	89	7.22	-4.44	4.01	0	262.7508772	531.2154326	44529	22.1839	4.2086
2008	90	10	-4.44	6.03	0	348.8912281	497.9753216	44695	22.6123	3.8267
2008	91	13.33	4.44	10.89	0.16	325.3473684	225.2769728	44860	21.9961	3.82
2008	92	21.11	1.11	15.61	0	779.5157895	172.8890394	45025	21.7406	4.4676
2008	93	8.33	-2.78	5.28	0.16	274.5263158	466.8634875	45190	21.6354	5.3725
2008	94	9.44	-2.22	6.24	0.8	302.6736842	317.4336773	45354	21.766	6.5089
2008	95	11.67	3.33	9.38	0.13	281.5789474	112.3247726	45518	21.5435	5.7371
2008	96	12.22	4.44	10.08	0	277.5157895	277.5338981	45681	21.6326	4.8681
2008	97	15	4.44	12.1	0	401.4596491	405.2141564	45845	22.9671	5.2703
2008	98	8.33	5.56	7.57	0	94.65263158	126.1629535	46007	22.3985	5.9689
2008	99	14.44	6.11	12.15	0	332.6807018	261.7510234	46169	22.0466	6.6054
2008	100	16.11	6.11	13.36	0	414.5754386	256.6507954	46331	21.7626	6.0174
2008	101	20.56	6.67	16.74	0.88	649.7052632	479.4604878	46492	21.6631	7.0093
2008	102	20	11.67	17.71	0.05	459.0105263	143.7465115	46653	21.5613	7.3927
2008	103	18.33	3.89	14.36	0.24	581.7052632	457.5626642	46813	21.5359	8.8244
2008	104	8.33	0.56	6.19	0	218.6315789	169.5090905	46972	22.7129	9.4989
2008	105	10.56	-2.22	7.04	0	340.6947368	401.2751692	47131	22.5985	9.589
2008	106	15	0	10.88	0	484.5333333	561.5878957	47289	22.3572	7.5295
2008	107	20	2.22	15.11	0	701.6982456	552.2627197	47446	21.9613	6.8661
2008	108	26.11	7.22	20.92	0	1022.021053	554.4629847	47602	21.7444	7.2463
2008	109	28.33	10.56	23.44	0	1130.484211	537.8415763	47758	21.5923	7.8626
2008	110	27.22	12.22	23.1	3.33	984.1192982	416.5839038	47912	21.4839	10.7483
2008	111	15.56	12.78	14.79	0.03	144.8140351	114.7453709	48066	22.8185	10.9023
2008	112	21.11	11.67	18.51	0	532.8070175	275.9571123	48219	22.8438	11.4083
2008	113	22.22	10	18.86	0	666.6666667	413.340583	48370	22.3916	11.6239
2008	114	23.89	10.56	20.22	0	768.9403509	420.1529441	48521	22.1233	11.5164
2008	115	22.22	11.11	19.17	0	629.8245614	519.813544	48671	21.9384	11.756
2008	116	25	11.11	21.18	2.54	836.3719298	386.4334788	48819	21.7146	11.7285
2008	117	27.22	10.56	22.64	0	1034.203509	392.209431	48966	22.3994	12.6156
2008	118	19.44	7.22	16.08	2.13	568.5824561	410.8230982	49112	23.0452	13.1138
2008	119	11.11	5	9.43	0	217.0666667	85.5561443	49257	23.8685	11.3107
2008	120	13.89	2.78	10.83	0	387.2912281	439.6441772	49401	22.7297	10.8609
2008	121	12.22	3.33	9.78	0	304.245614	404.569364	49543	22.2213	9.7801
2008	122	15	3.89	11.94	0	414.0701754	256.0311173	49683	21.9139	9.3523
2008	123	23.33	9.44	19.51	1.33	761.6350877	312.3472894	49823	21.8222	10.2973
2008	124	19.44	10	16.85	0.15	484.7017544	286.4218775	49960	22.3131	11.6684
2008	125	16.67	2.78	12.85	0	516.7719298	382.8252355	50096	23.1512	11.531
2008	126	20.56	5.56	16.43	0	674.7789474	539.717107	50231	22.4469	11.0252
2008	127	22.78	8.33	18.81	0	752.9473684	415.900959	50363	22.129	11.2377
2008	128	26.11	12.78	22.44	0.21	870.1122807	487.7954253	50495	21.9092	11.9504
2008	129	21.11	6.67	17.14	0.99	684.2807018	207.1066688	50624	22.0315	12.9111
2008	130	12.22	7.78	11	0	179.5649123	103.0653977	50751	23.0018	11.9294
2008	131	18.33	6.67	15.12	0.28	518.9263158	380.0835348	50877	22.6401	11.4472
2008	132	16.11	1.11	11.99	2.12	518.3789474	223.787451	51000	22.2356	10.7297
2008	133	10	2.22	7.86	0	242.4	136.5087242	51122	23.6347	9.3168
2008	134	22.22	7.22	18.1	0.12	743.0105263	573.336625	51241	22.6396	10.2698
2008	135	21.67	10	18.46	0.01	628.645614	286.9728961	51358	22.2837	10.9538
2008	136	22.78	8.89	18.96	1.32	738.0280702	412.6879141	51473	22.2878	12.1671
2008	137	11.11	5.56	9.58	0.25	201.5017544	64.68117319	51586	23.4068	11.2347
2008	138	18.89	6.67	15.53	0.37	550.5192982	215.1321547	51697	22.7862	10.596
2008	139	15.56	4.44	12.5	0.05	428.0421053	236.0624843	51805	23.0256	10.5484
2008	140	12.78	4.44	10.49	0.98	301.1508772	337.4939703	51910	22.5438	9.9998
2008	141	12.78	6.11	10.94	0.47	256.322807	149.0528896	52014	22.8521	9.421
2008	142	15	6.11	12.56	0.12	359.3473684	291.2318379	52114	22.8386	9.4271
2008	143	13.33	6.67	11.5	0	264.9403509	377.579158	52212	22.6712	12.1018
2008	144	18.89	6.11	15.38	0	564.2736842	488.9290166	52308	22.5967	9.9667
2008	145	21.67	6.11	17.39	0	731.9578947	530.3457634	52400	22.6679	10.4907
2008	146	23.89	9.44	19.92	0	801.9157895	583.9905125	52490	22.3773	9.8593
2008	147	29.44	13.89	25.17	0	1131.242105	490.009624	52577	22.0876	10.6767
2008	148	27.22	7.22	21.72	0	1109.866667	328.5980403	52662	21.6967	11.4906
2008	149	19.44	6.11	15.78	0	596.3157895	585.2339268	52743	20.6993	12.6299
2008	150	24.44	8.33	20.01	0	871.8105263	570.3446546	52821	20.2507	12.0058
2008	151	26.11	12.22	22.29	0.22	889.5859649	459.8854545	52896	19.8558	12.2466
2008	152	27.22	17.78	24.62	0	745.4877193	352.9051143	52969	19.7186	13.3526
2008	153	25.56	10	21.28	0	913.1789474	486.2564576	53038	19.471	14.0613
2008	154	25	13.33	21.79	1.03	757.5298246	542.0388867	53103	18.7162	13.5501
2008	155	27.78	15	24.26	1.13	930.4982456	379.1178573	53166	18.7477	13.7085
2008	156	21.11	17.78	20.19	0	232.4	90.04834194	53225	22.3354	14.5396
2008	157	28.33	19.44	25.89	0	758.1894737	345.9921548	53281	22.6253	15.5299
2008	158	32.78	20.56	29.42	0	1181.515789	525.1338733	53334	22.0699	16.8797
2008	159	33.33	23.33	30.58	0	1067.480702	518.1060825	53383	21.369	17.5324
2008	160	32.22	22.78	29.62	0	969.2842105	429.2805031	53429	20.4239	17.9919
2008	161	33.89	21.67	30.53	1.2	1251.333333	544.4346842	53471	19.1907	18.3894
2008	162	32.22	15.56	27.64	0	1357.122807	410.0632218	53510	19.2411	18.0876
2008	163	28.33	16.11	24.97	0	934.1684211	575.5212714	53546	21.2509	17.4722
2008	164	30.56	17.78	27.04	0.04	1079.873684	545.3852399	53577	19.4935	17.2305
2008	165	31.67	19.44	28.31	0.07	1115.017544	437.034623	53606	18.0234	17.426
2008	166	25	15.56	22.4	0	661.0736842	181.2395301	53630	17.3196	17.6316
2008	167	27.22	16.67	24.32	1.49	803.0315789	548.206464	53651	16.7401	17.3766
2008	168	26.67	13.89	23.15	0.01	875.8596491	355.7539921	53669	18.1383	16.6444
2008	169	19.44	13.33	17.76	0.14	352.6877193	299.6079692	53682	21.4856	15.5887
2008	170	18.89	8.89	16.14	0	487.4385965	230.6295793	53693	19.3977	14.8479
2008	171	20	11.11	17.56	0	480.1614035	342.9473361	53699	18.0976	14.0601
2008	172	26.11	13.33	22.6	0.22	849.5789474	471.4200588	53702	17.131	14.5901
2008	173	28.33	15	24.67	0.81	982.3789474	515.138638	53701	16.294	15.444
2008	174	26.67	15.56	23.61	0.11	805.2491228	539.7242811	53696	21.7585	16.2413
2008	175	25.56	12.78	22.04	0	823.9719298	482.1374236	53688	18.6928	16.1529
2008	176	25	13.33	21.79	0	757.5298246	423.956815	53676	17.1203	15.6037
2008	177	27.22	15	23.86	0.19	879.6982456	441.7024282	53661	16.1135	15.8874
2008	178	28.33	18.33	25.58	1.16	822.3719298	305.0543614	53641	15.4985	16.7691
2008	179	26.67	19.44	24.68	0	595.7403509	276.8843134	53619	18.0066	17.3252
2008	180	28.89	18.89	26.14	0.13	847.0035088	350.0097029	53592	19.9207	17.8698
2008	181	27.22	17.22	24.47	0.05	774.9263158	308.2490012	53562	17.7713	17.7509
2008	182	25.56	15.56	22.81	0	708.1122807	417.4633376	53529	16.5006	17.551
2008	183	22.78	13.33	20.18	0	584.9122807	300.6619244	53491	15.5677	16.9519
2008	184	27.22	15	23.86	0.02	879.6982456	560.1282857	53451	14.724	16.5797
2008	185	25.56	18.33	23.57	0.02	561.3684211	231.8553748	53407	14.0169	16.5041
2008	186	23.89	17.78	22.21	2.12	450.7157895	199.8697127	53359	13.7165	16.7692
2008	187	24.44	16.11	22.15	0	587.5438596	256.6897839	53308	20.6167	16.922
2008	188	27.78	17.22	24.88	0.01	827.3754386	370.6546738	53254	19.2928	17.3752
2008	189	27.22	18.89	24.93	0	682.4421053	297.1433942	53196	17.4254	18.0149
2008	190	30.56	18.89	27.35	0.44	1022.140351	501.4656629	53135	16.136	18.607
2008	191	26.67	16.11	23.76	0	779.2982456	190.4580091	53071	17.9783	18.6778
2008	192	26.67	15	23.46	0	829.9649123	565.0716361	53004	16.8656	18.4504
2008	193	28.33	16.67	25.12	0	908.1964912	471.9697353	52933	14.8374	17.8693
2008	194	31.11	19.44	27.9	0.33	1052.449123	520.0338063	52860	13.6611	18.5084
2008	195	27.78	17.22	24.88	0	827.3754386	355.3178675	52783	13.1781	19.1933
2008	196	26.67	15.56	23.61	0	805.2491228	522.2584862	52703	12.9453	18.6574
2008	197	28.33	16.11	24.97	0	934.1684211	560.3976055	52620	12.1315	17.8588
2008	198	31.11	17.22	27.29	0	1166.105263	557.7513277	52535	11.5294	18.0221
2008	199	31.67	20	28.46	0.12	1083.508772	438.8623918	52446	11.0591	18.7819
2008	200	32.22	21.11	29.17	0	1081.25614	413.3001242	52355	10.6858	19.3843
2008	201	31.67	20	28.46	0.39	1083.508772	517.5354854	52261	10.3483	19.7268
2008	202	32.22	18.89	28.56	0.38	1208.421053	409.5625719	52164	10.7803	19.3486
2008	203	29.44	18.33	26.39	0.02	934.6666667	405.7065783	52065	12.3479	19.5527
2008	204	28.89	19.44	26.29	1.3	814.6315789	414.7642553	51963	11.4023	19.5536
2008	205	23.33	15	21.04	1.03	552.8491228	134.2814223	51858	16.4119	18.7001
2008	206	25	14.44	22.1	0	711.6350877	347.1107418	51751	19.6218	17.7472
2008	207	27.78	15.56	24.42	0	906.5894737	534.5950002	51642	18.3331	17.6134
2008	208	28.33	18.33	25.58	0	822.3719298	433.7922375	51530	15.331	18.1136
2008	209	27.22	15.56	24.01	0	855.3824561	487.9174592	51417	13.5086	18.8044
2008	210	28.89	17.22	25.68	0	935.6210526	493.0210721	51300	11.9656	18.2718
2008	211	30	17.78	26.64	0.52	1021.207018	475.7485444	51182	10.8728	18.6567
2008	212	29.44	18.33	26.39	0	934.6666667	331.2877091	51062	11.0392	18.6276
2008	213	28.89	17.78	25.83	0	907.4596491	465.3030487	50939	12.3279	19.3539
2008	214	28.33	18.89	25.74	0.01	791.0035088	488.1866181	50815	10.7061	19.1589
2008	215	27.78	16.11	24.57	0	881.4526316	403.8918087	50688	9.6767	19.1935
2008	216	25.56	15	22.65	0	733.6140351	401.7587619	50560	8.8808	18.5433
2008	217	27.78	16.67	24.72	0.1	855.0596491	479.2455879	50430	8.4936	17.5625
2008	218	24.44	19.44	23.07	0.39	394.4982456	146.635572	50298	8.4686	18.5340342
2008	219	28.89	16.67	25.53	0.05	962.4561404	530.552428	50164	8.2546	19.0645986
2008	220	26.67	14.44	23.31	0.1	853.4947368	348.5250954	50029	8.0406	18.4015
2008	221	23.89	12.22	20.68	0	712.2807018	435.3575924	49892	7.8266	17.5723
2008	222	24.44	13.89	21.54	0.02	690.2175439	512.9065603	49754	7.5819	17.1444
2008	223	25	14.44	22.1	0.04	711.6350877	470.5948724	49614	7.3469	17.0922
2008	224	21.67	14.44	19.68	0	453.9789474	312.5321596	49472	7.0907	16.6508
2008	225	24.44	12.78	21.24	0.55	734.6105263	409.6248125	49330	6.9355	16.8491
2008	226	27.78	13.89	23.96	0	974.7929825	429.6788924	49186	6.7913	16.9032
2008	227	25.56	15.56	22.81	0	708.1122807	329.5958401	49040	7.2228	17.2583
2008	228	25.56	12.78	22.04	0	823.9719298	440.5088354	48894	7.1767	17.1926
2008	229	25.56	14.44	22.5	0	757.9157895	485.5606204	48746	6.9225	16.8084
2008	230	27.22	15	23.86	0	879.6982456	479.3240941	48597	6.7266	16.8672
2008	231	29.44	17.22	26.08	0	991.4596491	519.4066383	48446	6.5727	17.3253
2008	232	26.11	10	21.68	0	957.4807018	374.7148773	48295	6.4125	17.4219
2008	233	25.56	11.11	21.58	0	880.4421053	558.3377853	48143	6.1739	16.569
2008	234	29.44	12.78	24.86	0	1168.575439	536.697562	47990	5.9992	16.206
2008	235	30	16.11	26.18	0	1099.087719	528.263379	47836	5.8086	17.3533926
2008	236	27.78	17.78	25.03	0	798.3508772	487.5682976	47681	5.7758	17.32
2008	237	31.11	18.89	27.75	0.13	1082.968421	468.8788006	47525	5.743	17.885
2008	238	27.78	12.78	23.65	0.256919669	1014.603509	525.5087823	47368	5.7931	18.3341
2008	239	26.11	13.33	22.6	0	849.5789474	521.6431053	47210	5.6276	17.1947
2008	240	26.67	13.89	23.15	1.931221361	875.8596491	430.7492561	47052	5.4912	16.4924
2008	241	17.78	15.56	17.17	0.154643927	133.9719298	84.78493592	46893	6.3763	16.2892
2008	242	21.11	16.67	19.89	0.019685469	298.2175439	151.1140497	46734	8.6357	16.5503
2008	243	27.22	12.22	23.1	0	984.1192982	303.0324007	46573	9.6661	17.3308
2008	244	27.22	13.33	23.4	0	945.6491228	536.7217159	46413	9.7839	16.9499
2008	245	26.67	12.78	22.85	0	917.2561404	540.0980303	46251	9.445	16.7094
2008	246	29.44	14.44	25.32	0	1110.919298	528.1481265	46089	8.9885	16.6083
2008	247	30.56	15.56	26.43	0	1179.347368	507.259673	45927	8.5465	17.011
2008	248	31.67	16.11	27.39	0	1274.596491	481.1607814	45764	8.0809	17.3619
2008	249	31.11	20.56	28.21	0.318008268	986.9403509	451.3041667	45600	7.6566	18.0183
2008	250	22.78	12.78	20.03	0	607.6070175	102.935339	45437	7.4735	18.2026
2008	251	25	13.89	21.94	0	735.1508772	420.2074571	45272	7.3346	17.5492
2008	252	26.67	13.89	23.15	2.472082587	875.8596491	477.720094	45108	7.0439	17.0298
2008	253	20	9.44	17.1	0.025357557	537.7473684	103.7893554	44943	15.727	16.8908
2008	254	21.11	10.56	18.21	0	572.877193	485.4580151	44778	15.9804	15.9164
2008	255	20.56	13.33	18.57	2.352550719	426.7087719	303.217672	44613	14.1794	15.5969
2008	256	21.11	18.33	20.35	0.222390424	197.4105263	84.06061151	44447	18.8159	16.6735
2008	257	24.44	19.44	23.07	0.011863613	394.4982456	200.9966803	44281	19.3694	17.7593
2008	258	29.44	18.89	26.54	0	904.1824561	374.1760172	44115	18.292	18.8017
2008	259	22.78	11.67	19.72	0	649.7964912	298.3259232	43949	16.9521	18.4292
2008	260	20	9.44	17.1	0	537.7473684	226.0229313	43783	15.8063	16.4935
2008	261	23.33	10	19.67	0	745.277193	475.0160029	43617	15.0347	15.5586
2008	262	21.11	7.78	17.44	0	656.7087719	442.9891369	43450	14.424	15.5356
2008	263	20.56	8.33	17.19	0	606.2245614	419.7895989	43284	13.8467	14.7182
2008	264	21.11	10	18.06	0	591.4526316	409.7163764	43117	13.4701	14.6808
2008	265	24.44	10	20.47	0	827.4035088	407.9027962	42951	13.1449	14.9917
2008	266	19.44	7.78	16.24	0	553.522807	190.3744858	42784	12.8814	15.1433
2008	267	21.11	8.89	17.75	0	625.8315789	410.743606	42618	12.6073	14.7747
2008	268	23.33	9.44	19.51	0	761.6350877	461.1823942	42452	12.2667	14.6575
2008	269	20.56	11.11	17.96	0.003747898	516.3438596	365.7231471	42286	11.8906	14.6913
2008	270	17.78	12.22	16.25	0.523215553	297.5859649	85.06794872	42120	11.6221	14.7694
2008	271	21.11	16.67	19.89	2.148666677	298.2175439	146.5197597	41954	17.5133	15.7642
2008	272	22.22	13.89	19.93	0	519.9087719	216.5280942	41788	21.2844	16.7114
2008	273	20.56	10	17.65	0.053687621	555.0736842	270.7031689	41623	20.0219	16.277
2008	274	18.33	10	16.04	0.125669315	417.4245614	189.9629987	41458	18.986	14.9941
2008	275	15.56	8.33	13.57	0.004633213	320.5614035	173.7329329	41293	20.0103	14.2988
2008	276	12.78	8.33	11.56	0.021512976	185.5578947	241.5923071	41129	19.7549	13.4885
2008	277	15	5	12.25	0.245488242	388.154386	164.1662924	40964	18.9914	12.8218
2008	278	14.44	6.11	12.15	0.10475532	332.6807018	231.4760913	40801	19.9644	12.096
2008	279	16.67	7.78	14.22	0	396.3438596	416.6164825	40637	19.4076	12.5594
2008	280	16.67	2.22	12.69	0	526.7087719	375.476627	40474	18.774	12.4969
2008	281	16.67	2.78	12.85	0.034555732	516.7719298	432.2290881	40312	18.2184	11.4662
2008	282	16.67	7.22	14.07	0.052800421	412.7508772	218.5872478	40150	17.9065	11.6906
2008	283	21.67	8.89	18.15	0	662.4070175	389.0816224	39989	18.1538	13.4404
2008	284	21.11	6.11	16.99	0	696.8982456	422.8133725	39828	17.7746	13.0871
2008	285	21.11	5.56	16.83	0	708.7719298	416.9137066	39667	17.2878	12.6131
2008	286	22.78	7.78	18.65	0	767.0315789	407.251139	39508	16.8957	12.7574
2008	287	25	8.89	20.57	0	899.6140351	307.6376782	39349	16.5729	12.9431
2008	288	26.11	8.89	21.37	0.003419935	985.8385965	340.0631778	39191	16.3087	13.3506
2008	289	23.33	12.78	20.43	0.012276874	649.0245614	314.6322343	39033	16.149	14.551
2008	290	20	8.89	16.94	0.060760695	555.0877193	96.48724149	38876	15.9194	14.5592
2008	291	12.22	2.78	9.62	0	316.6035088	154.1217459	38720	15.4678	12.6226
2008	292	10.56	-1.11	7.35	0	324.5192982	289.662077	38565	15.0539	11.1322
2008	293	11.67	-1.11	8.15	0	365.1789474	411.4896254	38411	14.7772	10.3175
2008	294	16.11	-0.56	11.53	0.021685473	541.9649123	367.0695802	38258	14.5533	9.7647
2008	295	10.56	2.78	8.42	0	250.8	217.2820028	38106	14.4465	9.9186
2008	296	9.44	0.56	7	0	256.554386	281.3326044	37955	14.3126	9.7272
2008	297	12.22	0.56	9.01	0	359.8245614	390.2720612	37804	14.1462	9.3178
2008	298	13.89	6.67	11.9	2.518724922	290.6175439	167.6808392	37655	14.0305	9.1503
2008	299	14.44	3.33	11.39	0	400.4912281	43.15066521	37507	22.6828	10.3593
2008	300	16.67	3.89	13.15	0.048908441	494.9824561	364.9315329	37361	19.9407	10.0293
2008	301	8.89	3.89	7.51	0.039355786	161.8526316	251.9830713	37215	19.3345	10.001
2008	302	6.67	1.11	5.14	0.224549745	153.4105263	98.94246176	37071	18.9715	9.0065
2008	303	4.44	-0.56	3.07	0.009507193	122.6666667	103.6515923	36928	19.9572	7.5495
2008	304	8.89	-0.56	6.29	0	257.7403509	369.0951695	36787	20.1685	7.5788
2008	305	18.33	3.33	14.21	0	592.1684211	351.7090076	36647	19.5466	8.0297
2008	306	17.78	4.44	14.11	0	540.7368421	231.4742118	36509	19.3226	9.3506
2008	307	9.44	3.89	7.92	0.00872804	182.1403509	187.2377103	36372	19.092	9.267
2008	308	14.44	7.22	12.46	0.01	300.322807	258.375031	36237	18.9315	9.4305
2008	309	13.89	8.89	12.51	0	218.3298246	100.4017395	36103	18.8419	9.8881
2008	310	18.33	8.89	15.74	0	454.7368421	257.0485669	35971	18.8039	10.8131
2008	311	20	10	17.25	0	519.4947368	242.4719176	35841	18.7407	11.3973
2008	312	21.67	9.44	18.31	0.24	645.9719298	308.8003248	35713	18.711	12.0554
2008	313	12.78	4.44	10.49	0	301.1508772	134.4137582	35586	19.4905	11.2757
2008	314	8.33	1.67	6.5	0	195.6070175	146.6516271	35462	19.084	9.6831
2008	315	3.89	0.56	2.97	0	84.36491228	155.6687512	35339	18.741	8.4617
2008	316	4.44	0	3.22	0.07	111.4736842	123.6229308	35219	18.5443	7.7012
2008	317	10	0.56	7.4	1.44	276.2175439	228.2574359	35100	18.4369	7.9391
2008	318	8.89	5.56	7.97	0.01	115.0035088	38.74857078	34984	20.6626	7.961
2008	319	11.67	8.33	10.75	0.58	135.8245614	94.88379696	34870	20.2674	8.9308
2008	320	13.33	2.22	10.28	0.05	374.4701754	41.89573923	34759	20.9749	9.756
2008	321	5	0.56	3.78	0.04	115.4596491	114.7539612	34649	20.3242	8.1237
2008	322	2.78	-3.89	0.94	0	137.4175439	119.3574779	34542	19.8135	6.8693
2008	323	-0.56	-6.67	-2.24	0	103.4105263	215.6341251	34438	19.5134	5.5552
2008	324	0	-5.56	-1.53	0	99.83157895	222.922472	34336	19.2876	4.5694
2008	325	3.89	-2.78	2.06	0.15	147.677193	126.9326752	34237	19.1608	4.9242
2008	326	-1.11	-6.67	-2.64	0	92.70175439	141.2762742	34140	19.0525	4.5856
2008	327	-1.67	-6.11	-2.89	0	74.85614035	179.2016683	34046	18.9774	4.0191
2008	328	2.78	-6.67	0.18	1.34	173.9508772	289.8008482	33954	18.9908	3.8059
2008	329	2.22	-5.56	0.08	0.33	147.7754386	81.5214079	33866	18.9236	3.2885
2008	330	3.89	0	2.82	0	96.26666667	162.728952	33780	19.5849	3.7293
2008	331	1.67	0	1.21	0	39.15789474	90.9198445	33697	20.3233	3.8564
2008	332	5.56	-2.22	3.42	0	183.4526316	263.3917544	33618	20.7964	4.0658
2008	333	5.56	-1.11	3.72	0	164.3087719	229.6326884	33541	20.6967	4.0758
2008	334	5.56	-3.33	3.11	1.09	200.645614	268.2057549	33467	20.1755	4.0738
2008	335	3.89	0	2.82	0.05	96.26666667	25.89807468	33397	20.9092	3.6505
2008	336	6.11	0	4.43	0	159.4596491	120.3406043	33329	21.0634	4.1021
2008	337	2.22	-5	0.24	0	140.3578947	121.3659402	33265	20.1047	3.9169
2008	338	6.67	-4.44	3.61	0	246.7719298	271.7797253	33204	19.7493	3.4506
2008	339	7.78	-3.89	4.57	0	272.2807018	29.142883	33146	19.5618	4.0333
2008	340	-1.67	-8.33	-3.5	0	102.2736842	141.4201015	33092	19.3349	3.1183
2008	341	-1.67	-8.33	-3.5	0.03	102.2736842	134.0420084	33041	19.1041	2.0594
2008	342	-3.89	-9.44	-5.42	0	76.76491228	144.8592732	32993	18.9949	1.8897
2008	343	-1.11	-8.89	-3.25	0.04	118.2526316	78.60147501	32949	18.7478	1.3129
2008	344	11.67	-2.22	7.85	1.43	380.6105263	176.9446656	32909	18.8146	1.8165
2008	345	12.22	-1.11	8.56	2.17	386.2526316	30.39005841	32872	21.1726	4.3062
2008	346	1.67	-1.11	0.9	0.34	62.37894737	20.18929289	32838	22.1024	3.7416
2008	347	1.67	-6.11	-0.47	0	142.4561404	76.9372714	32808	21.9116	3.2038
2008	348	-0.56	-6.11	-2.08	0	96.21052632	241.9216033	32782	20.5681	2.2936
2008	349	9.44	-1.67	6.39	0.28	294.477193	251.2587381	32759	20.1664	2.3401
2008	350	13.89	-1.67	9.61	0.64	459.7824561	70.74098962	32740	20.2372	3.6575
2008	351	1.11	-2.22	0.19	0.73	70.59649123	68.16776678	32724	20.2884	3.4997
2008	352	3.33	-0.56	2.26	0	92.91929825	40.82190022	32712	21.1666	3.1308
2008	353	2.22	-0.56	1.46	3.2	64.64561404	88.91077544	32704	21.2285	3.1132
2008	354	5.56	-4.44	2.81	0	216	15.4468944	32699	22.6376	2.4832
2008	355	-2.78	-5.56	-3.54	0.12	46.58245614	137.640712	32698	21.6031	2.1321
2008	356	1.67	-15.56	-3.07	0	214.0280702	182.3404789	32701	20.6607	1.796
2008	357	-7.78	-14.44	-9.61	0	66.78596491	261.2881035	32707	19.8263	0.8153
2008	358	1.11	-11.11	-2.25	3.65	179.6561404	149.4164502	32717	18.9785	0.1766
2008	359	9.44	-0.56	6.69	0	276.5824561	44.81274633	32731	23.0888	0.137
2008	360	0	-5.56	-1.53	0.23	99.83157895	173.5758649	32749	22.3795	0.3761
2008	361	2.78	-4.44	0.79	0.13	145.5578947	183.3182179	32770	21.1804	0.714
2008	362	9.44	0	6.85	0.01	266.8421053	127.746539	32794	22.8742	1.0151
2008	363	12.22	0	8.86	0	369.1719298	142.5615136	32822	22.1777	1.817
2008	364	6.67	-1.11	4.53	0	196.8912281	258.5131795	32854	21.3301	2.1305
2008	365	3.89	-1.11	2.51	0.08	118.4	262.1079996	32889	20.7463	2.1557
2009	1	1.67	-9.44	-1.39	0	264.1864349	155.0455539	32928	19.865	0.8682
2009	2	-1.67	-9.44	-3.81	0	252.0662643	277.2813078	32971	19.7651	0.8736
2009	3	5.56	-5.56	2.5	0	338.4527851	154.4734834	33017	19.788	0.8165
2009	4	1.11	-7.78	-1.33	0	169.1340428	250.4367628	33066	19.5069	0.6463
2009	5	3.89	-7.22	0.83	0.01	266.6382496	130.8097467	33119	19.6423	1.4143
2009	6	3.89	-3.33	1.9	0.83	227.4430348	186.7836925	33175	19.5251	1.0299
2009	7	0	-3.33	-0.92	1.44	50.3711006	35.42534754	33234	21.9719	1.1288
2009	8	2.22	-3.33	0.69	0	165.2672999	35.77024267	33296	21.3569	0.9722
2009	9	-2.22	-5.56	-3.14	0	139.4944835	142.8110425	33362	20.4582	0.5973
2009	10	-2.78	-5.56	-3.54	1.05	49.44759858	211.1762735	33431	20.0839	0.4074
2009	11	-0.56	-5.56	-1.93	0	108.3172789	52.56209892	33503	20.149	0.4396
2009	12	-3.33	-6.11	-4.1	0	119.1433274	124.0813008	33579	20.0512	0.6349
2009	13	-0.56	-6.67	-2.24	0	110.799546	187.169623	33657	19.8886	0.7046
2009	14	0.56	-12.78	-3.11	0.18	98.79150683	92.89187267	33738	19.6436	0.4926
2009	15	-7.78	-13.33	-9.31	0.07	98.60923509	191.2382177	33822	19.3649	0.2718
2009	16	-8.89	-17.22	-11.18	0	94.76454865	195.8472972	33909	18.7877	-0.0056
2009	17	-13.33	-18.89	-14.86	0.01	68.80729022	272.8107297	33999	17.6594	-0.0766
2009	18	-6.67	-19.44	-10.18	0.26	44.73166455	213.4915229	34092	18.1231	-0.0736
2009	19	-3.33	-7.78	-4.56	0	102.9768209	115.1936116	34187	18.7776	-0.191
2009	20	-4.44	-12.22	-6.58	0	118.3555004	198.6965145	34285	18.6885	0.0101
2009	21	-3.89	-12.78	-6.33	0	155.8506765	153.4316873	34386	18.3569	0.0376
2009	22	-4.44	-12.78	-6.74	0	150.5775132	254.0363014	34489	18.433	0.2286
2009	23	4.44	-5.56	1.69	0	233.9671771	303.8885966	34595	20.4136	0.3012
2009	24	10.56	-2.78	6.89	0.004	438.592215	286.1560672	34703	21.9883	-0.0538
2009	25	-1.11	-12.78	-4.32	0.018	108.7026327	191.2816683	34814	18.9794	-0.3811
2009	26	-7.22	-12.78	-8.75	0.001	107.2715216	133.0920804	34926	13.2731	-0.4186
2009	27	-2.78	-10.56	-4.92	0.24	153.6160651	253.7081217	35042	11.4889	-0.5854
2009	28	-2.78	-6.67	-3.85	1.14	67.40931715	137.0974146	35159	11.599	-0.6001
2009	29	1.67	-8.33	-1.08	0.004	211.3752309	56.87618346	35278	14.9567	-0.505
2009	30	-0.56	-8.33	-2.69	0.089	154.5088648	275.4467797	35400	17.6652	-0.6485
2009	31	0	-11.11	-3.06	0.001	203.5899768	196.1663711	35523	17.9918	-0.5113
2009	32	-1.11	-11.67	-4.01	0	164.3049002	324.5517125	35649	20.1711	-0.3901
2009	33	9.44	-1.11	6.54	0.06	152.2796808	331.9759895	35776	22.2799	-0.4323
2009	34	3.89	-4.44	1.6	0.067	147.6905964	70.00790976	35905	21.742	-0.3958
2009	35	1.67	-8.89	-1.24	0.029	176.1774139	253.5008048	36036	21.0726	-0.4389
2009	36	-3.89	-16.11	-7.25	0	147.1429927	217.5034422	36169	18.4983	-0.4694
2009	37	-7.22	-15.56	-9.51	0	139.7014676	362.013222	36303	10.1373	-0.4214
2009	38	3.33	-8.33	0.12	0	237.8874798	360.4623765	36440	12.2992	-0.2807
2009	39	12.78	-2.78	8.5	0	419.5200398	217.6037947	36577	22.5899	-0.5055
2009	40	10.56	-2.22	7.04	0	386.0580639	216.7615209	36716	22.0399	-0.346
2009	41	7.22	-2.22	4.62	0.158	200.2813618	341.0010853	36857	22.4669	-0.1865
2009	42	10	2.78	8.01	0.258	279.2561642	85.07354253	36999	22.9833	1.6298
2009	43	16.67	5	13.46	0	600.4362025	260.6041515	37143	22.7928	2.6489
2009	44	6.11	1.11	4.74	0.003	318.3311801	86.93394481	37287	21.4622	1.9113
2009	45	2.22	-0.56	1.46	0.112	167.2721316	72.22969038	37433	20.9172	1.6849
2009	46	0.56	-5	-0.97	0	227.6195056	123.0332881	37581	20.6356	1.8361
2009	47	2.22	-5.56	0.08	0	272.1943102	351.0557396	37729	20.3203	1.2692
2009	48	0.56	-7.78	-1.74	0	236.7528368	228.1077114	37879	19.971	0.9091
2009	49	3.33	-7.78	0.28	0.63	161.2265878	385.4023245	38029	19.9874	0.7707
2009	50	4.44	-1.67	2.76	0.134	194.6061353	38.35342186	38181	22.1592	0.8041
2009	51	2.22	-8.89	-0.83	0.007	251.1921475	190.9096885	38334	20.7571	0.3692
2009	52	-3.89	-8.89	-5.26	0	223.1231013	225.5153169	38487	20.0838	0.1615
2009	53	3.33	-7.22	0.43	0.102	260.7307378	391.3288132	38642	20.5033	0.1367
2009	54	0	-6.67	-1.83	0.041	229.8927661	202.9565957	38798	20.011	0.1201
2009	55	-3.89	-11.11	-5.87	0	188.3726894	209.4387226	38954	19.2067	-0.1068
2009	56	-0.56	-11.11	-3.46	0	249.314548	429.0285597	39111	19.3903	0.1363
2009	57	8.33	-7.22	4.06	0.015	428.006074	414.2311747	39269	20.1875	1.2272
2009	58	12.78	2.78	10.03	0.745	279.7922266	197.8326063	39428	22.2052	2.1248
2009	59	12.78	-3.89	8.19	0	487.0341169	86.0709829	39587	21.8578	2.1038
2009	60	1.67	-4.44	-0.01	0	345.0601914	354.4487634	39747	21.0211	1.9404
2009	61	3.89	-8.33	0.53	0	354.7241505	289.1103315	39907	20.4764	1.1941
2009	62	-5.56	-13.89	-7.85	0	201.4583111	340.3241739	40068	19.7141	0.3818
2009	63	-2.22	-13.89	-5.43	0.002	249.8397379	454.3288839	40230	19.4	0.1015
2009	64	2.78	-11.11	-1.04	0.007	353.4684994	460.430506	40392	19.601	0.6971
2009	65	11.67	-7.22	6.47	0	543.6752737	439.2025151	40555	19.937	2.9808
2009	66	20	8.33	16.79	0.005	744.2677937	296.3650474	40718	19.8159	5.1504
2009	67	21.67	12.78	19.22	1.255	457.0879083	174.0303801	40882	21.6064	6.1851
2009	68	15	6.11	12.56	0.094	356.2603444	44.59771963	41046	22.5466	5.3801
2009	69	10	1.67	7.71	0.069	242.4558126	118.2215482	41210	21.1892	4.3036
2009	70	7.22	2.22	5.85	0.024	404.9297895	78.0172568	41375	20.8289	5.092
2009	71	17.22	-2.78	11.72	0	795.2153365	390.1841358	41540	20.4216	3.8902
2009	72	2.78	-5	0.64	0	319.2155879	317.3720177	41705	20.1598	3.5069
2009	73	6.67	-5	3.46	0	326.2932209	466.8058276	41870	19.974	3.8691
2009	74	11.11	-1.11	7.75	0	333.8742675	389.5550718	42036	19.8725	5.0317
2009	75	13.89	2.22	10.68	0.775	274.9745386	392.044595	42202	20.7443	5.1582
2009	76	11.67	3.33	9.38	0.004	267.5401823	124.9391758	42368	21.934	5.4376
2009	77	12.78	2.78	10.03	0	448.9978894	256.0915503	42534	21.0846	6.0728
2009	78	22.78	3.89	17.58	0.004	1053.709672	434.3761973	42701	20.6815	6.6841
2009	79	12.78	-2.22	8.65	0.004	629.3741589	321.2826183	42867	20.286	4.8348
2009	80	6.67	-6.11	3.15	0	449.3988361	337.8049172	43033	19.9943	3.9343
2009	81	8.33	-6.11	4.36	0	434.1245019	406.4468056	43200	19.8469	4.245
2009	82	12.22	-3.33	7.94	0	772.7372812	355.0930683	43366	19.6887	4.2514
2009	83	7.78	-6.67	3.81	0.003	602.8603107	528.8867755	43533	19.4884	3.861
2009	84	8.89	-6.11	4.76	0.002	618.5631465	512.8243438	43699	19.364	3.8017
2009	85	10	2.22	7.86	1.215	109.8442733	258.5353699	43865	21.3252	4.31
2009	86	5.56	1.67	4.49	0.041	272.2866165	45.54219658	44032	21.6752	5.1329
2009	87	14.44	2.78	11.24	0.027	168.8633258	400.4028463	44198	22.1055	6.0458
2009	88	12.22	7.22	10.85	0.698	227.6366565	89.91249465	44363	22.2318	6.4572
2009	89	10.56	1.11	7.96	0.059	343.3438813	145.1713041	44529	21.6594	5.2671
2009	90	3.89	0	2.82	0	353.6276041	159.5307081	44695	21.0378	5.7688
2009	91	16.11	0.56	11.83	0.718	256.8713881	507.5134195	44860	21.9839	6.0403
2009	92	8.89	6.11	8.13	0.026	314.3319836	105.789628	45025	21.6855	7.4457
2009	93	18.89	6.67	15.53	1.816	278.580352	461.6348971	45190	23.5156	8.4953
2009	94	15.56	3.33	12.19	0	640.2511348	79.33589099	45354	21.7915	7.5616
2009	95	8.89	2.22	7.06	0	645.7900798	374.2813173	45518	21.0728	7.4396
2009	96	18.89	2.78	14.46	0.639	490.0568742	525.2196537	45681	22.0086	7.7293
2009	97	12.22	-1.11	8.56	0.01	442.7006644	176.3503981	45845	21.2901	5.8463
2009	98	3.89	-0.56	2.67	0.002	422.2031368	243.2642859	46007	20.7889	5.631
2009	99	10	-0.56	7.1	0	604.6907822	351.3453616	46169	20.4974	5.9043
2009	100	15	1.11	11.18	0.185	399.0540823	542.5718849	46331	20.3565	6.121
2009	101	9.44	3.89	7.92	0.204	503.8963151	102.5447389	46492	21.0675	7.1072
2009	102	12.78	-1.11	8.96	0	778.1438675	444.5026901	46653	20.6351	6.4138
2009	103	10	-2.78	6.49	0.484	547.4747602	572.1304552	46813	20.4648	5.9687
2009	104	12.78	-1.11	8.96	0.798	119.0061886	368.7307332	46972	22.3921	6.1137
2009	105	7.78	5	7.01	1.14	116.3689887	46.34452908	47131	23.4773	6.2345
2009	106	7.78	-0.56	5.49	0.002	416.5154791	127.4696864	47289	21.6847	6.8523
2009	107	18.33	1.11	13.6	0	1103.46758	564.2099018	47446	21.0667	7.7135
2009	108	21.11	4.44	16.53	0	1361.317267	569.9938238	47602	20.7159	8.6947
2009	109	23.33	10.56	19.82	0.033	1347.874024	541.9207463	47758	20.4445	9.5024
2009	110	20	5	15.88	1.229	348.6805386	298.7421523	47912	21.9345	8.2249
2009	111	7.78	4.44	6.86	0.205	175.0739881	73.9256231	48066	22.2047	8.2322
2009	112	17.22	5	13.86	0.023	482.297071	306.7959311	48219	21.3904	7.518
2009	113	11.11	2.22	8.67	0.144	464.8843314	330.8135415	48370	21.1665	7.5293
2009	114	12.78	3.33	10.18	0.03	606.7031419	394.161765	48521	20.8314	8.2465
2009	115	23.89	5	18.69	0	1212.598359	434.9593392	48671	20.6588	10.3027
2009	116	30	13.89	25.57	0	2066.634528	432.1242549	48819	20.4644	11.7326
2009	117	31.11	15	26.68	0	2221.143246	546.1681371	48966	20.2546	12.8846
2009	118	32.22	16.67	27.94	0	1939.849546	541.3218154	49112	20.076	13.2897
2009	119	29.44	6.67	23.18	0.002	1225.275917	493.4652334	49257	20.2012	12.4014
2009	120	19.44	7.22	16.08	0.14	512.5185758	402.8471893	49401	19.8865	11.3804
2009	121	17.22	11.11	15.54	0.847	329.7594936	118.7372182	49543	20.9347	11.8306
2009	122	21.67	11.11	18.76	0.069	726.5510594	233.1827788	49683	22.2517	12.0288
2009	123	17.78	8.33	15.18	0.265	280.056739	326.1133011	49823	21.5317	10.9469
2009	124	14.44	8.33	12.76	1.5	146.8725817	177.5458567	49960	22.8786	10.7263
2009	125	11.11	9.44	10.65	0.855	196.1258044	78.52561083	50096	22.3576	10.6232
2009	126	13.33	9.44	12.26	1.376	211.5938044	127.9462881	50231	22.7091	11.2093
2009	127	18.89	11.11	16.75	0.022	522.6763283	230.7450906	50363	22.3927	12.1529
2009	128	21.11	11.11	18.36	0.236	366.700773	325.696267	50495	21.5435	12.1224
2009	129	22.22	12.78	19.62	0.009	757.6694342	263.7159845	50624	21.361	12.9286
2009	130	24.44	8.89	20.17	0	1085.621956	307.7087545	50751	20.7798	12.1858
2009	131	15.56	6.11	12.96	0.034	368.7424103	261.8315742	50877	20.3356	10.9855
2009	132	15.56	3.89	12.35	0	620.5911312	217.8732941	51000	20.054	10.7452
2009	133	16.67	4.44	13.31	0.031	702.4807696	483.4381675	51122	19.7687	10.9308
2009	134	21.67	7.22	17.69	1.619	282.4456908	479.5092992	51241	22.1022	11.8667
2009	135	20	11.11	17.56	0	606.2392927	242.6118813	51358	21.5913	12.8853
2009	136	24.44	11.11	20.78	1.91	472.1160068	503.6610067	51473	22.1775	13.7698
2009	137	26.11	7.78	21.07	0.002	1279.800578	327.6518823	51586	22.666	13.1512
2009	138	15	3.89	11.94	0	799.4811004	499.9752597	51697	21.9748	11.5028
2009	139	15.56	2.78	12.04	0.002	674.835982	604.3722614	51805	21.5426	11.1387
2009	140	22.22	5.56	17.64	0	1029.752062	598.2218455	51910	21.1566	11.8821
2009	141	28.33	11.11	23.6	0	1433.767087	585.7771946	52014	20.6793	12.6162
2009	142	29.44	13.89	25.17	0	1243.95323	597.8737192	52114	20.1069	13.244
2009	143	28.89	15.56	25.22	0.098	798.0652995	447.9868996	52212	19.8714	13.8332
2009	144	27.78	15.56	24.42	0.436	616.3887921	352.2021679	52308	20.0529	14.1957
2009	145	29.44	16.11	25.78	0	1196.570604	385.4783015	52400	20.8358	14.7185
2009	146	26.11	12.22	22.29	0.592	513.7200429	532.2553629	52490	21.0274	13.3624
2009	147	12.78	9.44	11.86	0.188	127.795897	92.49831675	52577	21.8868	12.5143
2009	148	16.67	10.56	14.99	1.821	156.1560378	162.9570088	52662	22.2578	13.5048
2009	149	22.78	16.67	21.1	0.003	345.4430767	231.3654703	52743	23.1933	14.3352
2009	150	20	12.78	18.01	0.005	761.5117931	184.9645217	52821	22.0514	13.829
2009	151	21.67	10	18.46	0.001	917.7313413	544.0036298	52896	21.3923	13.2336
2009	152	21.11	5	16.68	0.003	748.3944377	546.4939115	52969	20.857	12.6422
2009	153	22.78	8.33	18.81	0.562	391.0654887	477.6434632	53038	21.38	13.566
2009	154	23.89	15.56	21.6	1.448	162.8550763	323.5355818	53103	22.9207	13.6361
2009	155	16.67	11.11	15.14	0.002	320.1857322	54.65613362	53166	22.8476	13.1712
2009	156	17.78	11.11	15.94	0.664	142.9780977	217.9634382	53225	23.1888	13.0049
2009	157	14.44	12.22	13.83	0.002	457.0342452	73.79384771	53281	22.4703	13.7396
2009	158	24.44	12.78	21.24	0	781.4197036	556.5243934	53334	21.7713	14.2466
2009	159	27.22	15.56	24.01	1.188	665.3370689	531.5557575	53383	21.9969	15.1334
2009	160	27.78	18.33	25.18	0.802	607.6812536	390.751633	53429	23.3643	16.0913
2009	161	28.33	16.67	25.12	0.057	534.0691892	371.963008	53471	22.1962	15.9572
2009	162	25	17.78	23.01	1.03	246.4732931	323.1155111	53510	22.4261	15.8362
2009	163	22.22	17.78	21	0.405	384.3381698	157.7462929	53546	23.393	16.1453
2009	164	23.89	16.11	21.75	0.008	696.7668218	266.0981391	53577	22.4787	15.9931
2009	165	25	11.11	21.18	0.015	901.0650168	364.0599933	53606	21.7598	15.5474
2009	166	25	12.78	21.64	0	948.8202684	561.4360619	53630	21.1029	15.2917
2009	167	26.67	15	23.46	0	568.0934847	550.5218356	53651	20.566	15.0982
2009	168	22.22	15.56	20.39	2.058	280.2558962	188	53669	22.3267	14.6724
2009	169	16.67	13.89	15.9	0.269	268.2314446	135.68088	53682	23.1947	14.7907
2009	170	21.67	15.56	19.99	0.159	551.8582417	214.8344291	53693	22.2108	15.3275
2009	171	24.44	16.11	22.15	3.874	322.3490787	340.8653606	53699	23.8582	16.0902
2009	172	24.44	16.67	22.31	0.251	646.0100973	146.2408476	53702	23.2324	16.3699
2009	173	23.89	15.56	21.6	0	828.393316	276.2871455	53701	22.2494	16.6076
2009	174	27.22	15.56	24.01	0	1047.297317	400.843899	53696	21.5198	16.7196
2009	175	27.22	14.44	23.71	0	1122.611537	558.2149084	53688	20.8001	16.7855
2009	176	29.44	16.11	25.78	0.001	996.8158224	575.9127916	53676	20.0257	16.9931
2009	177	30.56	18.89	27.35	0.159	778.0274218	507.4936546	53661	19.4561	17.5272
2009	178	26.67	15.56	23.61	0	921.1815165	403.7957905	53641	18.5576	17.0959
2009	179	26.67	15.56	23.61	0.429	359.5379371	491.8327086	53619	17.7026	16.3001
2009	180	21.11	13.89	19.12	0.045	571.5133907	116.2824116	53592	19.736	16.464
2009	181	26.11	15.56	23.21	1.334	317.4763943	487.6221388	53562	21.1674	16.434
2009	182	22.78	13.89	20.33	0.776	384.479247	309.9693998	53529	22.023	16.2277
2009	183	24.44	15	21.85	0.26	292.929466	338.1314988	53491	23.1258	16.418
2009	184	22.22	15.56	20.39	0	508.6422429	242.0939926	53451	22.2449	16.2641
2009	185	22.22	15	20.24	0	843.0129499	313.2517086	53407	21.3624	16.4387
2009	186	23.33	11.11	19.97	0	777.5442578	469.425514	53359	20.2295	15.9305
2009	187	23.89	12.22	20.68	0	853.5576772	547.6865574	53308	19.01	15.7448
2009	188	27.22	13.89	23.56	0	1176.476636	523.280993	53254	17.6931	15.9683
2009	189	26.11	11.67	22.14	0	808.670287	512.0840101	53196	16.503	15.5119
2009	190	22.78	12.78	20.03	0	719.4379253	403.718453	53135	15.6093	15.603
2009	191	26.11	13.89	22.75	0	704.8211986	450.6709691	53071	14.8369	15.794
2009	192	26.11	16.67	23.51	1.4	447.6598914	412.1833069	53004	15.8347	16.3551
2009	193	25.56	17.22	23.26	0	901.6685182	259.7328699	52933	19.2928	16.8198
2009	194	25	14.44	22.1	0	1029.287788	547.7308551	52860	17.1818	16.1425
2009	195	24.44	11.11	20.78	0	973.6450359	547.9027907	52783	15.6093	15.3995394
2009	196	25	11.11	21.18	0.009	832.3341124	585.0799195	52703	14.8369	15.339783
2009	197	27.78	13.33	23.81	0	986.6266601	537.9431965	52620	12.8725	17.4479
2009	198	30	18.33	26.79	1.307	450.5324709	469.2875036	52535	16.3683	16.4506
2009	199	22.78	13.89	20.33	0.022	540.2532892	156.5801205	52446	19.4378	16.1681
2009	200	20.56	13.33	18.57	0.023	532.8747459	291.0120141	52355	16.4708	15.8723
2009	201	23.89	14.44	21.29	0.016	675.0930108	439.14927	52261	15.126	15.7572
2009	202	26.11	15.56	23.21	0.217	693.6484257	380.9887854	52164	13.84381579	16.471533
2009	203	25	15.56	22.4	0.694	372.1661505	389.7421492	52065	13.38328947	16.5973836
2009	204	25	16.67	22.71	2.02	320.5875517	253.5307815	51963	14.02802632	17.354298
2009	205	25.56	17.22	23.26	0.165	532.685326	273.2542134	51858	15.63328947	17.4892026
2009	206	26.11	15	23.06	0.655	481.6771529	418.1852331	51751	15.63328947	17.105313
2009	207	27.78	16.67	24.72	0.022	476.1631711	384.4510476	51642	15.89644737	17.4747162
2009	208	26.11	18.33	23.97	0.001	732.9878967	324.7343295	51530	15.67276316	17.5018782
2009	209	27.78	17.22	24.88	0	788.7211924	458.2545462	51417	15.13328947	17.5996614
2009	210	28.89	18.33	25.99	1.24	256.614042	470.5817154	51300	14.88328947	17.6702826
2009	211	22.78	18.33	21.56	0	508.5388685	163.5237584	51182	15.44907895	18.0025644
2009	212	27.78	19.44	25.49	1.467	246.626154	365.4246602	51062	16.17276316	18.2950086
2009	213	22.22	16.67	20.69	0.003	528.009103	122.565441	50939	17.59381579	18.2289144
2009	214	27.22	17.22	24.47	0.12	503.28073	506.6144249	50815	17.52802632	18.2950086
2009	215	25.56	14.44	22.5	0.001	667.5599216	272.2438644	50688	17.09381579	17.8142412
2009	216	25.56	15.56	22.81	0	624.4665166	507.4447785	50560	16.25171053	17.612337
2009	217	28.33	16.67	25.12	0	756.4169314	494.616855	50430	15.58065789	17.9419026
2009	218	26.11	12.78	22.44	0.004	846.0942866	320.9862619	50298	14.89644737	17.2338798
2009	219	25	12.22	21.49	0	668.5008427	428.4242485	50164	14.21223684	16.5702216
2009	220	24.44	13.89	21.54	0.277	634.6702583	421.8924624	50029	13.65960526	16.7784636
2009	221	26.11	16.11	23.36	0.177	442.6475989	406.1789064	49892	13.5675	17.630445
2009	222	29.44	20	26.85	0.418	806.3058002	245.3757889	49754	13.40960526	18.7069656
2009	223	32.22	20	28.86	0.038	614.5217081	433.2942315	49614	13.0675	18.8328162
2009	224	27.78	18.33	25.18	1.84	449.6914643	273.9751375	49472	12.8175	18.5068722
2009	225	26.67	16.67	23.92	0	530.6079843	277.6136834	49330	14.26486842	18.2334414
2009	226	26.67	17.78	24.22	0	626.9497425	466.979425	49186	14.34381579	18.3493326
2009	227	28.89	17.78	25.83	0.002	794.0750932	471.8079119	49040	13.88328947	18.667128
2009	228	30.56	19.44	27.5	0	901.5865104	517.4930666	48894	13.27802632	18.8654106
2009	229	31.11	20	28.06	0.002	1105.731535	512.0612768	48746	12.68592105	19.0220448
2009	230	32.78	20.56	29.42	0.451	611.56991	520.5570508	48597	12.18592105	19.0546392
2009	231	30.56	20.56	27.81	0.002	676.9374703	353.0740618	48446	12.09381579	19.359759
2009	232	29.44	20	26.85	0	749.152435	335.0939435	48295	11.79118421	19.4014074
2009	233	29.44	20.56	27	0.488	492.655685	360.8208255	48143	11.62013158	19.6368114
2009	234	26.67	18.89	24.53	0	559.8637232	286.8407377	47990	11.65960526	19.3425564
2009	235	26.67	17.78	24.22	0	846.3101499	300.8905427	47836	11.3175	19.3619
2009	236	25.56	14.44	22.5	0	576.5525923	432.6559426	47681	10.71223684	18.0596046
2009	237	25.56	14.44	22.5	0	667.7699726	383.9634929	47525	10.26486842	17.8260114
2009	238	27.22	16.11	24.17	0	897.3468059	508.4194604	47368	9.830657895	17.9527674
2009	239	28.89	17.22	25.68	0.027	534.4074612	462.4241898	47210	9.514868421	18.1908876
2009	240	19.44	16.67	18.68	1.252	219.3969411	128.512093	47052	9.3175	17.7490524
2009	241	20	16.67	19.08	1.77	330.555097	72.7311539	46893	10.79118421	17.9581998
2009	242	26.11	14.44	22.9	0	761.1388359	320.4080541	46734	12.47539474	17.3280414
2009	243	22.22	11.11	19.17	0.001	540.8998917	480.1938247	46573	12.14644737	16.163697
2009	244	18.89	7.78	15.83	0	474.5543285	398.0785771	46413	11.64644737	15.1206762
2009	245	20.56	8.33	17.19	0	529.277754	538.6507319	46251	11.15960526	14.8345698
2009	246	23.33	10	19.67	0	586.9153305	521.0623576	46089	10.68592105	14.8753128
2009	247	23.89	10.56	20.22	0	627.404906	512.5118558	45927	10.25171053	15.1514598
2009	248	25	12.22	21.49	0	667.4029684	508.0795167	45764	9.830657895	15.4783092
2009	249	25.56	12.78	22.04	0	723.5662468	474.4047149	45600	9.409605263	15.5607006
2009	250	25	13.89	21.94	0.01	385.7817956	454.5401105	45437	9.133289474	15.8984148
2009	251	20	17.22	19.24	0.004	409.4359562	150.4898834	45272	9.028026316	16.0478058
2009	252	22.22	16.11	20.54	0.006	474.4212481	208.9722001	45108	8.804342105	16.1066568
2009	253	22.78	15	20.64	0.008	708.5729684	236.9511826	44943	8.514868421	15.9536442
2009	254	20	12.78	18.01	2.075	218.3804631	440.6224485	44778	8.251710526	14.9386908
2009	255	15	12.22	14.24	0.053	192.5441047	62.22258086	44613	10.65960526	14.9712852
2009	256	19.44	13.89	17.92	0.01	587.8569736	106.9569825	44447	11.18592105	15.5425926
2009	257	24.44	15	21.85	0.005	598.2023368	477.8696958	44281	10.87013158	15.9337254
2009	258	23.89	13.89	21.14	0	456.242422	328.4017228	44115	10.43592105	15.724578
2009	259	24.44	11.67	20.93	0	743.9274831	297.3866755	43949	10.04118421	15.5090928
2009	260	19.44	11.67	17.31	0.013	315.1932069	387.5532056	43783	9.606973684	15.054582
2009	261	16.11	13.89	15.5	0.014	481.6589997	79.71882523	43617	9.370131579	15.1143384
2009	262	23.33	10	19.67	0.016	668.9773209	431.1204143	43450	8.870131579	14.6571114
2009	263	20	5.56	16.03	0	394.0091204	511.4600545	43284	9.0435	14.7863
2009	264	23.33	6.11	18.6	0	470.319669	419.366955	43117	8.9106	15.0294
2009	265	23.89	14.44	21.29	0.077	413.0755619	425.1073549	42951	8.8551	15.8821
2009	266	23.33	18.33	21.96	0.461	323.0048201	146.6952599	42784	11.41	16.9487
2009	267	26.11	17.78	23.82	0.001	550.8505766	287.909733	42618	13.0592	17.2504
2009	268	22.78	13.33	20.18	0.001	766.0699265	209.8487704	42452	10.2706	16.3835
2009	269	20	12.22	17.86	3.541	393.1857879	423.0745637	42286	13.3563	14.711
2009	270	14.44	11.67	13.68	1.124	97.59836475	66.51524217	42120	21.7963	14.4933
2009	271	16.67	12.22	15.44	0.783	392.4936873	144.1699004	41954	21.5094	14.0994
2009	272	20	11.11	17.56	0.005	614.0463142	258.0364698	41788	19.7401	13.8323
2009	273	13.89	10.56	12.97	0.001	474.1497003	80.00398818	41623	18.3911	13.5465
2009	274	13.33	6.67	11.5	0	425.1628331	226.9404458	41458	16.9996	12.5872
2009	275	12.78	3.89	10.33	0.968	132.6601074	243.7642458	41293	18.1098	11.9572
2009	276	15	5	12.25	0.041	279.36355	215.6805174	41129	21.4678	13.0467
2009	277	18.89	7.78	15.83	0	395.4028318	364.3781369	40964	19.3449	12.6572
2009	278	15.56	7.78	13.42	0	431.4231722	216.5545207	40801	18.2943	12.337
2009	279	15.56	4.44	12.5	0.002	370.5361453	299.5252848	40637	18.2943	11.4619548
2009	280	17.78	5	14.26	0.275	564.702324	375.2800316	40474	18.2943	12.3075984
2009	281	13.33	7.78	11.81	0.002	466.8655743	216.561148	40312	18.2943	11.9653572
2009	282	18.33	8.33	15.58	1.539	171.0742548	346.520797	40150	19.9252	12.8038
2009	283	17.78	11.67	16.1	0.051	390.5188521	98.41761484	39989	21.1658	13.041
2009	284	14.44	5	11.85	0	373.7990604	209.3787285	39828	19.954	11.3495
2009	285	12.78	3.89	10.33	0	340.3996733	336.8411526	39667	19.1746	10.4899
2009	286	9.44	3.89	7.92	0.014	283.6007623	134.8980966	39508	18.597	10.6875
2009	287	13.33	0	9.67	0	252.7312396	155.3075809	39349	17.9585	9.6134
2009	288	7.22	0.56	5.39	2.875	65.32204503	143.7659156	39191	21.4458	8.0054
2009	289	3.89	-0.56	2.67	1.015	39.74306619	41.64829759	39033	22.9792	6.9049
2009	290	1.67	0	1.21	0.716	44.46893486	105.1623624	38876	22.7054	7.2326
2009	291	3.89	0	2.82	0.051	193.5736985	86.93755165	38720	21.7793	7.8278
2009	292	10	-1.11	6.94	0	279.1027575	257.0438221	38565	20.7224	7.7933
2009	293	12.78	0	9.26	0	396.3782907	402.2132462	38411	20.3802	8.8069
2009	294	19.44	6.67	15.93	0	513.2498888	342.0583407	38258	20.148	9.6026
2009	295	21.11	7.78	17.44	0	743.1655047	279.9480397	38106	19.9734	10.2723
2009	296	21.67	8.33	18	1.851	421.5513789	314.7272296	37955	20.9597	10.9278
2009	297	17.22	11.11	15.54	6.417	347.2655167	117.1349064	37804	24.0657	12.7867
2009	298	18.33	6.67	15.12	0	724.291248	136.2429425	37655	21.4578	11.5847
2009	299	15	2.78	11.64	0	419.3229011	365.9718719	37507	20.8776	10.4915
2009	300	15.56	3.33	12.19	0.546	201.9614038	343.4797248	37361	20.7874	10.2915
2009	301	13.33	7.78	11.81	0.801	131.5099396	136.5894397	37215	23.1049	11.1071
2009	302	15	11.11	13.93	0	246.9586021	83.21016428	37071	21.5459	11.4417
2009	303	13.33	10	12.42	0.014	246.492101	79.03531196	36928	21.0879	11.4122
2009	304	14.44	11.11	13.53	0.11	391.4013184	58.89743659	36787	20.8803	11.4908
2009	305	16.67	5.56	13.61	0	645.7503674	58.59573771	36647	20.6727	10.59096
2009	306	11.67	-0.56	8.31	0	308.9746219	300.2259717	36509	20.4651	9.2609274
2009	307	12.78	0	9.26	0.053	442.227101	341.7961344	36372	20.2575	9.00651
2009	308	12.22	-1.11	8.56	0.003	384.6979668	277.2042388	36237	19.9093	8.3066358
2009	309	7.78	-1.11	5.33	0.076	213.3716827	194.7745617	36103	19.8547	7.4876
2009	310	7.22	0.56	5.39	0	391.6988879	113.8939145	35971	19.8001	7.5333
2009	311	7.78	-2.22	5.03	0	335.0895566	336.1670712	35841	19.6858	7.166
2009	312	13.33	-2.22	9.06	0.001	394.3304765	306.7477949	35713	19.7299	8.4257
2009	313	21.11	5.56	16.83	0	457.0171514	315.5840499	35586	19.6923	8.8792
2009	314	19.44	5.56	15.62	0	543.8915295	189.9116237	35462	19.6882	9.4463
2009	315	14.44	5.56	12	0.015	742.7692553	138.9815218	35339	19.614	9.1624
2009	316	10.56	2.22	8.26	0	635.896958	173.1909481	35219	19.4962	8.5597
2009	317	10	2.78	8.01	0	609.4263692	186.6418803	35100	19.4885	9.1653
2009	318	15.56	5	12.65	0.004	362.9603322	271.4951978	34984	19.5049	10.0976
2009	319	14.44	4.44	11.69	0.001	298.1035457	133.4935475	34870	19.4794	10.151
2009	320	19.44	5.56	15.62	0	734.7430277	276.6466239	34759	19.4224	10.206
2009	321	12.78	5.56	10.79	0	794.3924701	289.2625473	34649	19.3075	9.3817
2009	322	8.89	2.78	7.21	0	365.799792	100.9619594	34542	19.1905	8.5
2009	323	10	4.44	8.47	1.256	110.5722992	173.5931529	34438	20.5508	9.2558
2009	324	11.11	6.11	9.74	0	439.1936874	54.9111137	34336	21.5721	9.2953
2009	325	10	5	8.62	0	315.3315028	191.1826679	34237	21.0601	8.9125
2009	326	10.56	5	9.03	0	191.8939447	116.415993	34140	20.7376	8.1158
2009	327	8.33	3.89	7.11	0.257	215.7106532	80.56611643	34046	20.5439	8.1702
2009	328	9.44	4.44	8.07	0.473	79.92162581	92.74624492	33954	22.1717	8.6631
2009	329	9.44	6.67	8.68	0.026	100.914755	76.33266403	33866	21.3985	8.9151
2009	330	10.56	2.22	8.26	0.686	98.29357923	92.60408526	33780	21.4544	8.436
2009	331	10	2.22	7.86	0.048	323.7376413	140.3104727	33697	22.0304	7.5442
2009	332	5.56	1.67	4.49	0.009	219.0044832	100.8761378	33618	21.2284	6.7805
2009	333	5	0	3.62	0.023	273.8465278	97.60299335	33541	20.9512	6.7122
2009	334	16.11	0.56	11.83	0.104	443.3355542	253.7934981	33467	20.8001	7.6912
2009	335	11.11	-0.56	7.9	0	346.3394737	63.40611432	33397	20.5878	6.2899
2009	336	6.11	-2.22	3.82	1.114	74.259888	119.4484083	33329	21.2161	5.6929
2009	337	12.78	-1.67	8.81	0.442	269.6985342	68.63177514	33265	22.5106	7.0353
2009	338	11.67	2.78	9.22	0.002	404.3970804	58.21304662	33204	21.5709	6.4869
2009	339	5	-1.11	3.32	0.467	103.075495	140.8872262	33146	21.75361217	5.3468832
2009	340	0.56	-3.89	-0.67	0.001	169.5391919	39.108425	33092	21.52547529	4.714914
2009	341	0.56	-5.56	-1.12	0.004	114.5965167	283.8162586	33041	21.24030418	4.4143212
2009	342	1.11	-5.56	-0.72	0.921	191.6584817	88.95050465	32993	21.16425856	4.4867532
2009	343	3.33	-1.11	2.11	2.348	93.08141013	218.1263771	32949	21.82965779	4.2676464
2009	344	6.11	-3.33	3.51	0.001	362.2057389	154.7091677	32909	22.6851711	3.420192
2009	345	-2.22	-10	-4.36	0	241.5653984	166.6408798	32872	21.98174905	3.3604356
2009	346	-2.78	-9.44	-4.61	0	243.8525446	204.1721177	32838	21.54448669	2.777358
2009	347	2.22	-5.56	0.08	1.665	137.7923547	275.3377835	32808	22.51406844	2.8126686
2009	348	5	-0.56	3.47	0	126.5436996	51.09499115	32782	23.71178707	3.0779508
2009	349	7.78	2.78	6.4	0.152	169.7839001	131.1490583	32759	23.93992395	3.157626
2009	350	7.78	-3.89	4.57	0.005	351.5186021	52.82345754	32740	23.12243346	2.632494
2009	351	-1.11	-7.22	-2.79	0.001	194.6349855	233.9156582	32724	21.3421	1.7049
2009	352	-1.67	-6.67	-3.04	0	190.6060358	212.0011005	32712	21.1438	1.8341
2009	353	0	-6.67	-1.83	0.775	69.38089985	178.18591	32704	20.9287	1.8054
2009	354	-4.44	-7.22	-5.21	0.005	141.3702265	62.00299703	32699	20.7735	2.1292
2009	355	0	-6.11	-1.68	0.002	163.3830332	250.2578751	32698	20.6914	2.2859
2009	356	0.56	-3.33	-0.51	0.005	181.8306143	200.249656	32701	20.6773	2.3044
2009	357	1.11	-9.44	-1.79	0	198.3102232	114.6239031	32707	20.6058	1.9884
2009	358	-1.67	-9.44	-3.81	0	130.5850733	276.4927713	32717	20.4492	1.845
2009	359	0	-5.56	-1.53	0.784	66.77951248	271.6298005	32731	20.9957	1.9172
2009	360	6.11	-1.67	3.97	1.86	54.83178188	43.00454976	32749	24.3586	2.1195
2009	361	6.67	-2.78	4.07	0.001	160.2968077	50.7335978	32770	22.6782	2.3653
2009	362	5	-2.78	2.86	0.024	256.0515326	196.5332378	32794	21.8002	1.8762
2009	363	-2.22	-7.78	-3.75	0.037	202.1849359	131.618122	32822	21.2444	1.173
2009	364	-4.44	-9.44	-5.82	0	146.7228171	227.6367566	32854	20.8439	0.7624
2009	365	-1.67	-9.44	-3.81	0.433	66.96507975	174.9951656	32889	20.8193	0.741
2010	1	0	-3.89	-1.07	0.022	111.5198336	85.07561953	32928	20.8672	1.0163
2010	2	2.78	-7.78	-0.12	0.073	216.0043044	110.3866428	32971	20.6096	0.9216
2010	3	-6.67	-11.11	-7.89	0.005	118.5879497	178.9096526	33017	20.0913	0.6338
2010	4	-6.11	-10.56	-7.33	0.005	120.014054	82.91417166	33066	19.9401	0.3884
2010	5	-3.89	-7.78	-4.96	0.01	132.4565973	107.471542	33119	20.0088	0.3191
2010	6	-2.78	-7.78	-4.15	0.019	121.4258647	86.79933685	33175	20.1544	0.372
2010	7	-1.11	-3.89	-1.87	0.079	165.2800878	66.69669615	33234	20.1942	0.423
2010	8	-1.67	-6.11	-2.89	0.058	125.2094245	84.95921432	33296	20.1032	0.4399
2010	9	-4.44	-8.89	-5.67	0.005	176.6695034	209.6644086	33362	19.9072	0.4566
2010	10	-2.78	-13.33	-5.68	0	146.0890171	292.5369268	33431	19.5226	0.2001
2010	11	-4.44	-13.33	-6.89	0.016	127.458138	261.7366803	33503	19.139	0.0032
2010	12	-2.22	-9.44	-4.21	0.001	147.7534395	156.5544537	33579	19.3981	0.0213
2010	13	-2.22	-6.67	-3.44	0	169.3752225	206.6843747	33657	19.5389	0.1247
2010	14	0	-7.78	-2.14	0	186.0429463	176.3264865	33738	19.8008	0.0747
2010	15	7.22	-7.22	3.25	0	245.8080478	288.1660458	33822	21.3336	0.3934
2010	16	5.56	2.22	4.64	0	241.7271257	59.95647173	33909	23.0466	1.2599
2010	17	9.44	-1.67	6.39	1.665	67.46757635	170.790435	33999	23.2159	1.4791
2010	18	3.89	-1.11	2.51	0.01	129.5067224	26.47219289	34092	22.3256	2.2911
2010	19	6.11	2.22	5.04	0.015	179.3813113	203.5951093	34187	21.6642	2.2171
2010	20	4.44	-2.22	2.61	0	253.3243194	45.43497156	34285	21.3365	1.8264
2010	21	1.67	-7.22	-0.78	0	178.2963888	164.4032455	34386	21.0444	1.3696
2010	22	3.33	-6.67	0.58	0.065	242.7984897	294.5434776	34489	20.9547	1.7658
2010	23	2.78	-4.44	0.79	0	267.359495	103.8670328	34595	20.8519	1.7418
2010	24	5	-5	2.25	1.476	142.2054918	298.4909374	34703	21.7813	2.0472
2010	25	13.33	1.67	10.12	3.723	284.4608514	68.47710691	34814	24.0777	4.7825
2010	26	11.67	-1.67	8	0.028	387.2378933	77.96546985	34926	22.0703	3.2255
2010	27	0.56	-3.89	-0.67	0.004	234.7107231	176.6892301	35042	21.5733	2.156
2010	28	0.56	-3.89	-0.67	0.068	202.1964405	229.6415143	35159	21.2677	1.4621
2010	29	1.67	-13.33	-2.46	0	232.2756603	193.8167697	35278	20.4893	0.5605
2010	30	-7.22	-13.33	-8.9	0	153.0169118	276.4918644	35400	19.5401	-0.0508
2010	31	-8.33	-13.89	-9.86	0	155.742414	142.3351068	35523	18.1246	-0.3015
2010	32	-2.22	-13.33	-5.28	0	191.5766279	338.7432467	35649	18.3828	-0.4317
2010	33	-1.11	-7.78	-2.94	0.188	149.8203472	258.1529517	35776	18.6301	-0.3033
2010	34	1.67	-6.67	-0.62	0.003	138.2543235	170.4110291	35905	19.8712	-0.2549
2010	35	1.11	-4.44	-0.42	0	282.8756916	113.4632035	36036	20.9755	-0.1708
2010	36	3.33	-4.44	1.19	1.194	169.1546818	336.3579861	36169	21.3845	-0.0506
2010	37	1.11	-5.56	-0.72	0.582	179.3266347	68.67597719	36303	21.3339	-0.0824
2010	38	-2.22	-15.56	-5.89	0.001	140.014984	205.5920143	36440	21.0315	0.034
2010	39	-2.22	-14.44	-5.58	0	135.2405321	369.5466277	36577	20.8388	0.1844
2010	40	-1.67	-10.56	-4.11	0.269	77.78833028	401.6545103	36716	20.7882	0.3818
2010	41	-2.22	-8.89	-4.06	0.704	61.59693208	131.9910465	36857	20.8012	0.3912
2010	42	-2.78	-9.44	-4.61	0.001	139.1377205	104.2889808	36999	20.6903	0.4975
2010	43	-1.11	-5.56	-2.33	0	209.4065999	229.4715828	37143	20.687	0.6063
2010	44	1.11	-7.78	-1.33	0.01	211.6857332	340.1720171	37287	20.7635	0.5804
2010	45	-3.33	-7.78	-4.56	0.004	137.1988201	192.6055619	37433	20.6165	0.6441
2010	46	-1.11	-9.44	-3.4	0.371	119.729269	126.4190948	37581	20.5515	0.461
2010	47	0.56	-9.44	-2.19	0.011	165.7281876	221.9893451	37729	20.5397	0.586
2010	48	-1.11	-6.67	-2.64	0.017	161.4629869	248.4792629	37879	20.5338	0.7318
2010	49	0.56	-5	-0.97	0.002	215.9663021	192.9330774	38029	20.5762	1.0156
2010	50	2.78	0	2.01	0	320.3520665	270.4695529	38181	20.994	1.0774
2010	51	4.44	-3.89	2.15	0	334.1611361	301.7261178	38334	21.4697	0.8685
2010	52	5	-3.89	2.56	0	409.1621616	232.2372749	38487	21.5878	0.8838
2010	53	7.22	-3.33	4.32	0.15	253.520992	407.1309456	38642	22.0531	0.7664
2010	54	4.44	-2.22	2.61	0.017	75.61425035	137.8104026	38798	21.8715	1.029
2010	55	3.33	-0.56	2.26	0	263.6064599	104.6039945	38954	22.0678	1.1395
2010	56	2.78	-2.22	1.4	0.06	207.1322165	208.8667638	39111	22.1372	0.9871
2010	57	0.56	-6.67	-1.43	0.315	120.0686571	222.8887927	39269	21.6948	0.4992
2010	58	-2.22	-5.56	-3.14	0.081	119.7091058	132.2950695	39428	21.4133	0.5057
2010	59	1.67	-3.89	0.14	0.016	187.3356345	272.2746861	39587	21.4383	0.7618
2010	60	4.44	-1.11	2.92	0.006	233.5345711	251.1958638	39747	22.4157	1.1619
2010	61	3.89	0	2.82	0.005	243.5892452	165.3150575	39907	22.6786	1.2495
2010	62	3.33	-0.56	2.26	0.043	207.0671659	182.1579814	40068	22.7878	1.4111
2010	63	4.44	-2.78	2.46	0	394.4714723	115.5337808	40230	23.0894	1.6343
2010	64	5	-2.78	2.86	0	426.5389723	439.5047534	40392	23.2895	1.986
2010	65	7.22	-5	3.86	0	483.723969	419.4639872	40555	22.4227	2.1077
2010	66	9.44	-4.44	5.62	0	602.7230652	467.4409352	40718	21.914	2.5986
2010	67	10.56	-1.11	7.35	0.001	646.133554	460.0942958	40882	21.5972	3.1526
2010	68	11.67	-0.56	8.31	0	594.5900011	461.4164596	41046	21.3581	3.5385
2010	69	15.56	1.11	11.58	0.003	679.1629471	454.4945402	41210	21.1958	4.2181
2010	70	15.56	2.22	11.89	0.006	541.3981871	261.2535589	41375	21.1326	5.5856
2010	71	18.89	3.89	14.76	1.034	178.3883097	421.2968946	41540	23.3405	6.3385
2010	72	10	5	8.62	3.237	123.9284277	64.10411222	41705	24.6701	5.8054
2010	73	8.33	5	7.42	0.322	103.5372274	55.12892286	41870	23.5416	5.714
2010	74	6.67	4.44	6.06	0.041	196.7819722	65.61390237	42036	22.5923	5.472
2010	75	6.67	4.44	6.06	0	528.4148953	78.1147339	42202	22.1517	6.1317
2010	76	15.56	-0.56	11.13	0	786.6147442	476.9151246	42368	21.8563	6.0439
2010	77	17.78	0	12.89	0	884.5385146	492.73607	42534	21.6618	6.1423
2010	78	18.89	1.67	14.15	0	912.8883794	470.4246036	42701	21.5215	6.6336
2010	79	20	6.11	16.18	0	1037.163672	467.6267992	42867	21.4215	7.2381
2010	80	21.11	6.67	17.14	0	1167.51575	434.3761299	43033	21.445	8.2721
2010	81	22.78	7.78	18.65	0.346	561.2853258	416.7556944	43200	21.81	8.9717
2010	82	18.33	7.78	15.43	0.215	335.6198265	124.479454	43366	22.4289	8.0112
2010	83	8.33	2.78	6.81	0	570.5693522	48.67755496	43533	22.0656	7.3379
2010	84	15.56	2.78	12.04	1.081	517.5675446	503.9315774	43699	22.3424	7.304
2010	85	18.33	-1.11	12.99	0.221	733.2761299	231.4165508	43865	23.8174	6.805
2010	86	5	-5.56	2.1	0	443.5347271	467.6842978	44032	22.6199	5.4505
2010	87	8.89	-5.56	4.92	2.297	172.9833566	470.2192181	44198	23.4282	5.1462
2010	88	7.22	2.78	6	0	186.4774684	150.5477538	44363	23.4845	6.1981
2010	89	14.44	1.67	10.93	0.002	690.6611826	225.4681668	44529	22.7203	6.1992
2010	90	10	1.67	7.71	0	707.0691914	266.377738	44695	22.466	7.0355
2010	91	20	5	15.88	0.028	1108.768058	511.437004	44860	22.2786	8.0091
2010	92	26.67	6.67	21.17	0	1343.450028	507.3818101	45025	22.1377	9.2556
2010	93	28.33	10	23.29	0	1371.97667	462.4367559	45190	21.994	10.1937
2010	94	25.56	12.22	21.89	0	1784.308152	435.8771001	45354	21.8108	10.2471
2010	95	21.11	7.22	17.29	0.127	1113.620212	465.9983303	45518	21.608	10.1538
2010	96	26.67	8.33	21.63	0.157	1268.346143	406.7829076	45681	21.7685	11.4624
2010	97	30	15.56	26.03	0.049	2277.840818	446.655186	45845	21.6085	11.9524
2010	98	29.44	12.22	24.71	0.194	1355.85076	379.7380833	46007	21.4978	11.6643
2010	99	28.89	4.44	22.17	0.037	1122.008326	372.5798913	46169	21.3199	9.7342
2010	100	7.22	3.89	6.31	0	562.5312808	179.55233	46331	21.1005	8.8922
2010	101	16.67	5.56	13.61	0.126	923.1641868	548.0731954	46492	21.0108	9.2368
2010	102	21.11	2.78	16.07	0	1318.838169	437.8569009	46653	20.8865	9.5001
2010	103	18.89	4.44	14.92	0.001	845.7859205	518.1982569	46813	20.7166	9.0753
2010	104	13.33	0	9.67	0	506.9135009	221.6722941	46972	20.6134	8.6767
2010	105	18.33	2.78	14.06	0	837.0168582	526.7408075	47131	20.5632	9.424
2010	106	25.56	7.78	20.67	0.557	874.0810633	461.4455159	47289	21.4578	10.6147
2010	107	25.56	6.11	20.21	0.068	825.0047669	318.0201281	47446	22.672	9.4349
2010	108	7.22	1.67	5.69	0.017	312.1296568	170.5551657	47602	21.8171	8.2005
2010	109	9.44	1.67	7.31	0	517.9129054	200.2423678	47758	21.5229	8.5705
2010	110	17.22	2.22	13.1	0	745.8473127	558.1331817	47912	21.3034	9.0552
2010	111	18.33	5	14.67	0.063	608.2405161	482.3339367	48066	21.1457	9.3347
2010	112	20	4.44	15.72	0.056	751.3825465	396.1591281	48219	21.0163	9.3768
2010	113	20	3.33	15.42	0.001	1116.214058	385.3875336	48370	20.8699	9.6508
2010	114	19.44	3.89	15.17	0.111	757.695633	564.1263783	48521	20.634	9.2588
2010	115	16.67	6.11	13.76	1.316	125.4044897	259.9680097	48671	24.1009	9.256
2010	116	11.67	7.78	10.6	1.117	100.9510084	107.3452959	48819	24.751	9.5122
2010	117	12.22	5.56	10.39	0	599.0647484	107.8803864	48966	23.5997	9.1726
2010	118	11.11	1.67	8.51	0	629.9726654	455.3688101	49112	22.7326	8.4895
2010	119	12.78	2.78	10.03	0.073	801.9290074	399.0018881	49257	22.3881	9.1603
2010	120	19.44	6.67	15.93	0.019	905.2578058	546.7403494	49401	22.1259	10.5234
2010	121	27.78	10	22.89	0	1358.744456	521.5866621	49543	21.8456	12.0192
2010	122	30.56	15.56	26.43	1.075	594.7040993	450.8251716	49683	21.6622	12.9347
2010	123	23.89	17.78	22.21	0.754	641.6816102	146.5390482	49823	24.5156	13.9143
2010	124	25	12.78	21.64	0.37	871.2859522	270.4929544	49960	23.3451	12.9288
2010	125	22.22	8.89	18.56	0	858.2302341	442.5669115	50096	22.7135	12.7329
2010	126	26.67	11.11	22.39	0.27	1221.65997	569.4504788	50231	22.6695	12.9866
2010	127	21.11	6.11	16.99	0	743.1969638	560.3188452	50363	21.9197	12.1705
2010	128	20.56	8.33	17.19	0.813	641.877035	446.5041489	50495	23.194	12.115
2010	129	16.11	2.78	12.44	0.001	632.339722	343.873558	50624	22.2933	10.2474
2010	130	8.33	2.22	6.65	0	538.1930523	221.9358042	50751	21.6458	9.7401
2010	131	15	1.67	11.33	2.929	284.1894484	601.7866816	50877	22.9783	8.7049
2010	132	9.44	3.33	7.76	0.369	95.03821326	84.61235294	51000	24.1927	8.8651
2010	133	16.11	6.67	13.51	0.001	325.1761622	124.2531591	51122	22.9474	9.7106
2010	134	14.44	7.78	12.61	0.295	322.4562471	204.1767335	51241	22.6611	11.2094
2010	135	27.22	11.11	22.79	0	1337.088583	332.1215001	51358	22.4205	11.9435
2010	136	21.11	10.56	18.21	0.003	900.2163436	517.0892312	51473	21.5934	11.8331
2010	137	19.44	8.89	16.54	0.338	439.1544302	545.8230915	51586	21.3426	11.3258
2010	138	15.56	8.33	13.57	0.512	179.6434306	138.9265141	51697	23.4357	10.6837
2010	139	11.67	8.33	10.75	0.003	250.5843739	92.26130682	51805	22.7379	10.8051
2010	140	17.78	10	15.64	0.001	659.6935837	253.1652475	51910	22.0369	11.9418
2010	141	27.22	13.33	23.4	0	1003.374627	550.5801323	52014	21.2798	12.7199
2010	142	27.78	15.56	24.42	1.541	781.8861175	410.6865142	52114	21.4759	13.1272
2010	143	22.22	15	20.24	0.632	266.716222	299.7104497	52212	24.68	13.754
2010	144	22.22	13.89	19.93	0.005	399.917488	255.3545538	52308	23.2909	13.8793
2010	145	23.33	15	21.04	0.007	644.1077855	286.6230725	52400	22.4893	14.6201
2010	146	26.67	16.11	23.76	0	895.8815694	439.6306725	52490	21.6857	15.116
2010	147	30	17.78	26.64	0	1313.359499	547.7983339	52577	20.8385	15.8904
2010	148	30.56	18.89	27.35	0.049	664.1662989	479.0819376	52662	20.0562	15.7415
2010	149	26.11	17.78	23.82	0	684.3608582	289.6928502	52743	19.505	15.6825
2010	150	26.11	13.33	22.6	0	956.8020012	354.3647792	52821	18.5119	15.5776
2010	151	30	16.11	26.18	0.126	789.0704057	569.5046317	52896	17.4992	15.8605
2010	152	30.56	17.78	27.04	0.308	503.5565497	397.5129038	52969	17.6624	16.1011
2010	153	26.11	14.44	22.9	0.001	795.9966503	256.7324937	53038	17.5756	15.9247
2010	154	28.33	16.11	24.97	0	918.3023758	527.5724912	53103	16.3	16.4504
2010	155	27.78	18.89	25.33	0.04	670.8221589	376.3463868	53166	15.497	16.5731
2010	156	28.33	18.89	25.74	0.189	534.0558894	354.1336778	53225	15.0666	16.8321
2010	157	27.78	18.89	25.33	0.105	791.4485343	293.8819467	53281	14.7261	16.5544
2010	158	25.56	12.78	22.04	0	1096.404058	343.5280309	53334	14.0862	15.3521
2010	159	21.11	10	18.06	0	920.4562131	410.4082198	53383	13.3892	14.4619
2010	160	22.22	11.67	19.32	3.931	255.7260075	585.2579124	53429	20.7623	13.5976
2010	161	17.22	12.22	15.85	0	513.1863292	72.04826916	53471	22.1889	14.5235
2010	162	25.56	12.78	22.04	0	685.5874432	487.6168193	53510	20.4733	14.8488
2010	163	25.56	13.89	22.35	0.021	570.430018	467.1209801	53546	18.996	16.0511
2010	164	31.11	19.44	27.9	0.529	730.595471	471.5924371	53577	19.3117	17.1344
2010	165	28.33	16.67	25.12	0.009	625.1153143	296.6134574	53606	18.666	16.9081
2010	166	25	18.33	23.17	0.018	529.8318543	218.7056312	53630	17.2848	16.6008
2010	167	23.33	17.78	21.81	0.105	485.7824635	255.665188	53651	16.5981	16.8212
2010	168	28.33	17.22	25.28	0	1173.624179	428.3863683	53669	15.5903	16.6251
2010	169	23.33	11.67	20.12	0	676.6384707	434.4317648	53682	14.4848	15.9537
2010	170	27.22	13.89	23.56	0.043	778.92801	574.6877247	53693	13.6342	16.5641
2010	171	31.11	17.78	27.44	0	1104.615981	503.0047114	53699	12.9542	17.324
2010	172	28.89	16.11	25.38	0	1056.244733	418.5089568	53702	12.3003	17.2263
2010	173	29.44	18.89	26.54	0.449	654.9866769	523.446677	53701	13.7572	17.3201
2010	174	27.78	20.56	25.79	0.042	875.979023	289.275514	53696	13.2008	18.1745
2010	175	31.67	20.56	28.61	0.009	1198.900125	496.9816905	53688	11.8942	18.2574
2010	176	28.33	16.67	25.12	0	1026.932597	378.4889336	53676	11.2199	17.7758
2010	177	27.22	17.22	24.47	0	950.2680028	495.7837908	53661	10.7383	17.5677
2010	178	30	19.44	27.1	1.034	899.8804639	446.1037453	53641	12.4291	18.3465
2010	179	31.67	21.11	28.76	0.139	968.1793801	452.7681046	53619	12.082	18.8591
2010	180	26.67	19.44	24.68	0	1134.858296	228.4517279	53592	11.231	18.3202
2010	181	25	8.89	20.57	0	1057.861714	488.4842612	53562	10.3997	16.3318
2010	182	22.22	10	18.86	0	983.406447	539.4237142	53529	9.9583	15.5475
2010	183	22.22	10	18.86	0	883.5957742	474.1217962	53491	9.6227	15.2858
2010	184	25	12.22	21.49	0	1060.72511	574.5579877	53451	9.3789	15.7319
2010	185	30	13.33	25.42	0	1367.643937	574.7227143	53407	9.1533	16.5291
2010	186	32.78	18.33	28.81	0	1530.310727	565.443018	53359	8.9851	17.6258
2010	187	34.44	20.56	30.62	0	1773.996979	475.057271	53308	8.8126	18.4072
2010	188	33.89	21.11	30.38	0	1710.002764	492.9856537	53254	8.6367	19.0108
2010	189	33.89	21.11	30.38	0	1870.65705	496.0998383	53196	8.4243	19.1249
2010	190	34.44	22.22	31.08	3.792	1197.390857	476.904338	53135	10.5865	19.3577
2010	191	32.78	18.33	28.81	0.019	1312.467067	392.8769196	53071	19.1992	19.2531
2010	192	27.78	14.44	24.11	0	1133.416809	525.5413365	53004	15.5345	18.3034
2010	193	30	17.22	26.49	0.795	682.3568476	568.3926095	52933	13.8622	17.9308
2010	194	27.78	19.44	25.49	0.401	456.26382	344.053689	52860	15.5974	18.3903
2010	195	25.56	19.44	23.88	0.925	524.0691574	206.5965368	52783	19.8919	18.9869
2010	196	28.33	18.33	25.58	0	848.8172994	312.7365805	52703	17.3746	19.2617
2010	197	30.56	20	27.65	0.487	485.2050045	501.7411631	52620	15.5822	19.343
2010	198	29.44	18.89	26.54	0.003	831.2836514	324.7284858	52535	16.0753	19.5173
2010	199	30	18.89	26.94	0.003	1335.872475	494.1107234	52446	13.5168	20.0518
2010	200	31.67	22.22	29.07	0.001	1172.862153	516.2557922	52355	11.9127	19.9226
2010	201	30.56	18.33	27.19	0.459	546.8714812	459.8963854	52261	13.9918	19.4187
2010	202	29.44	18.89	26.54	0.761	750.04759	326.6476689	52164	13.3378	19.8594
2010	203	31.11	18.89	27.75	0	979.5500502	417.1403822	52065	12.7903	19.7938
2010	204	29.44	20	26.85	0.001	1130.484838	516.7896773	51963	11.844	20.4073
2010	205	33.89	22.22	30.68	0.008	1667.306151	440.4106213	51858	10.7542	21.236
2010	206	32.78	22.22	29.88	0.201	1058.341802	478.5279318	51751	10.3456	20.6601
2010	207	27.22	17.22	24.47	0	1104.311093	280.8925487	51642	10.017	19.4297
2010	208	27.78	16.11	24.57	0	989.1303315	564.1301378	51530	9.4029	18.9353
2010	209	29.44	18.33	26.39	0.001	1062.703218	530.1708773	51417	9.0416	19.3477
2010	210	30.56	20	27.65	0.312	1242.692256	499.9139181	51300	9.1591	19.9715
2010	211	28.89	14.44	24.92	0	1191.594979	458.6983705	51182	8.8959	18.7021
2010	212	25.56	13.33	22.19	0	1046.683227	492.6402217	51062	8.5147	18.0935
2010	213	26.67	15.56	23.61	0.003	1014.72537	468.5463397	50939	8.2809	18.5999
2010	214	27.78	18.33	25.18	0	799.9971262	406.3037292	50815	8.0308	18.3624
2010	215	25.56	19.44	23.88	0.122	482.7329491	319.319839	50688	7.9556	18.7912
2010	216	28.33	21.67	26.5	0.21	643.2302471	250.2314478	50560	8.0615	19.7983
2010	217	32.22	20.56	29.01	0.016	1043.26288	360.6039064	50430	8.1306	19.9002
2010	218	28.33	18.33	25.58	0.199	980.2004728	368.7530916	50298	8.7212	19.312
2010	219	25.56	15	22.65	0	950.096899	392.7425644	50164	8.076	18.3264
2010	220	26.67	13.89	23.15	0	1108.238357	462.3589718	50029	7.7089	18.0689
2010	221	29.44	15	25.47	0	1455.063619	506.9994989	49892	7.4813	18.5306
2010	222	32.22	17.22	28.1	0	1413.836914	509.5128834	49754	7.2931	19.381
2010	223	32.22	20	28.86	0	1543.52506	388.7245536	49614	7.1197	19.8647
2010	224	31.67	20	28.46	1.738	407.2173777	505.668277	49472	9.284520493	19.5909
2010	225	23.33	16.67	21.5	0.057	456.9723593	142.4630043	49330	10.83645046	18.7431816
2010	226	21.67	17.22	20.44	0	729.8387913	171.2793884	49186	10.39872662	18.381927
2010	227	24.44	19.44	23.07	0.924	306.2990266	208.9867047	49040	10.51810585	18.4009404
2010	228	27.22	19.44	25.08	0	894.7940435	221.0361394	48894	10.83645046	19.3217322
2010	229	30	16.67	26.33	0	1297.342299	449.2098429	48746	10.23955432	18.9242616
2010	230	27.78	17.78	25.03	0	866.6201794	506.3022615	48597	9.589600743	18.3629136
2010	231	25.56	14.44	22.5	0	779.0633917	270.5033852	48446	9.005968961	18.0759018
2010	232	30	16.11	26.18	0	1085.611031	468.7396625	48295	8.475394615	18.2805222
2010	233	29.44	16.67	25.93	0.435	1022.523487	461.6193631	48143	8.303	19.009
2010	234	28.33	17.22	25.28	4.741	519.1962818	306.8267764	47990	19.6111	19.6061
2010	235	26.11	17.22	23.67	0.2	405.6654593	253.2890919	47836	14.05968961	18.824239
2010	236	20.56	15	19.03	0.053	371.05711	155.1791699	47681	13.94031039	18.178159
2010	237	20.56	15	19.03	0.085	441.8330614	172.3907628	47525	13.72808065	18.079228
2010	238	25	16.67	22.71	0.012	877.2703059	279.0671128	47368	13.29035681	18.1085035
2010	239	24.44	10.56	20.62	0.095	748.6583543	455.2917814	47210	12.60061016	17.12626
2010	240	25	10.56	21.03	0	779.5339742	547.6961022	47052	11.95065659	16.5881965
2010	241	27.22	12.22	23.1	0	791.4642562	536.0757896	46893	11.42008224	16.9395025
2010	242	30.56	14.44	26.13	0	1024.022671	518.6078444	46734	10.96909404	17.6683615
2010	243	30.56	16.67	26.74	0	1047.837738	511.5565456	46573	10.5171	18.5703
2010	244	32.22	18.33	28.4	0	1262.067289	488.2495637	46413	10.0719	18.5463
2010	245	32.22	18.33	28.4	0	1320.47912	492.8001341	46251	9.5931	18.7501
2010	246	32.78	18.33	28.81	0.006	1314.304528	503.9149906	46089	9.1457	18.5626
2010	247	31.67	15	27.08	0	1431.1609	400.319028	45927	8.6987	17.3053
2010	248	19.44	10.56	17	0	721.8798257	265.2846998	45764	8.3226	15.6917
2010	249	20	7.78	16.64	0	679.7199161	415.3873904	45600	8.0503	15.2367
2010	250	25.56	8.89	20.97	0.002	1107.261922	457.7717499	45437	7.89	16.4637
2010	251	31.67	15	27.08	0	1890.012094	495.0344584	45272	7.6166	17.1894
2010	252	23.89	13.33	20.99	0	1038.530398	503.5719828	45108	7.2131	16.0449
2010	253	19.44	12.78	17.61	0.002	777.2339625	231.0999266	44943	6.9911	15.704
2010	254	20	8.33	16.79	0.202	748.6275351	290.650163	44778	6.7528	15.1216
2010	255	22.78	10	19.26	0.459	216.9822357	447.5443705	44613	8.0333	15.6194
2010	256	20.56	9.44	17.5	0.003	619.4254481	139.7689383	44447	7.6686	15.662
2010	257	25	11.11	21.18	0	1061.000073	452.1078792	44281	7.3578	15.3674
2010	258	22.78	11.11	19.57	0	990.0210669	500.4573501	44115	7.0956	15.2044
2010	259	23.89	10.56	20.22	2.56	372.4080067	503.9175863	43949	12.2769	14.4337
2010	260	17.78	11.67	16.1	0.049	375.0209321	84.36151018	43783	16.8633	15.1875
2010	261	17.78	8.89	15.33	0.006	375.7720653	239.2505674	43617	13.9236	14.9132
2010	262	22.78	8.89	18.96	0.021	480.5608047	453.506214	43450	12.3972	15.4803
2010	263	26.11	11.67	22.14	0	1081.792827	332.6857037	43284	11.1603	15.3737
2010	264	20.56	7.22	16.89	0	643.9765751	493.7118306	43117	10.0611	14.453
2010	265	25	7.22	20.11	0.013	635.0261859	480.9962981	42951	9.4646	15.6022
2010	266	30.56	15	26.28	0	782.4224953	375.1295812	42784	9.0423	16.6748
2010	267	28.89	16.11	25.38	0	1217.707535	349.8233376	42618	8.7426	17.2898
2010	268	31.11	17.22	27.29	0	1751.510632	405.625106	42452	8.018181818	17.3352431
2010	269	25.56	10	21.28	0.007	831.7510312	472.0965095	42286	7.218181818	16.0387123
2010	270	18.33	10	16.04	2.374	164.7892971	268.5343305	42120	9.836363636	15.8434854
2010	271	20	13.33	18.17	0.476	426.1130836	99.07493922	41954	11.98181818	16.633734
2010	272	22.78	12.22	19.88	0.011	487.310112	298.0669331	41788	11.21818182	15.8528264
2010	273	18.33	12.22	16.65	7.102	126.6738748	248.5008769	41623	12.14545455	15.7229865
2010	274	17.78	12.22	16.25	0.315	547.663525	17.46538666	41458	17.72727273	15.4707795
2010	275	18.33	5.56	14.82	0	426.5965178	271.3559683	41293	18.58181818	14.2218878
2010	276	16.67	5.56	13.61	0.08	575.8699083	458.080284	41129	18.2079	13.8674
2010	277	16.67	6.11	13.76	0.539	278.6348763	337.7378674	40964	20.0137	12.6963
2010	278	9.44	6.67	8.68	0.213	133.5831472	101.3366339	40801	20.6335	12.208
2010	279	11.11	7.78	10.19	0.153	190.0250428	71.4293378	40637	20.2056	12.2081
2010	280	12.22	8.33	11.15	0.014	463.5628944	85.42313584	40474	19.9354	12.8707
2010	281	18.89	7.22	15.68	0	655.8766755	338.7311719	40312	19.1195	12.7302
2010	282	22.22	7.78	18.25	0.069	779.6958025	438.6341968	40150	19.93275	13.3111403
2010	283	22.78	6.67	18.35	0	692.8307783	417.9222036	39989	19.38275	13.3989457
2010	284	25	6.67	19.96	0.079909632	741.3670975	369.4599528	39828	19.05775	14.2648564
2010	285	24.44	12.78	21.24	0.523662809	521.5284483	277.3587617	39667	19.03275	14.5236021
2010	286	20.56	3.33	15.82	0.040224015	566.6405233	344.9811684	39508	18.43275	13.0738789
2010	287	15.56	3.89	12.35	0.147938583	231.1095259	441.6509441	39349	17.98275	11.9202654
2010	288	12.22	6.11	10.54	0.048341628	468.0303829	77.99188589	39191	17.93275	11.8716922
2010	289	13.89	6.11	11.75	0.006908119	761.6832293	307.2938539	39033	17.50775	11.8464715
2010	290	16.11	6.67	13.51	0	685.4528063	422.1212059	38876	17.05775	11.6802017
2010	291	19.44	5	15.47	0.08731825	555.0569026	392.1113378	38720	16.73275	11.3943671
2010	292	11.67	5.56	9.99	0.159114079	282.4429187	124.3855309	38565	16.58275	11.2019425
2010	293	13.33	2.78	10.43	0	414.7898982	271.7385645	38411	16.9304	10.3992
2010	294	15.56	3.33	12.19	0.008091048	699.3025205	347.0574259	38258	16.6208	10.3955
2010	295	13.33	3.33	10.58	0.070468828	490.3280585	282.2905054	38106	16.2877	9.9125
2010	296	10.56	3.33	8.57	0	557.1833776	197.7326571	37955	16.0854	10.0007
2010	297	21.67	8.89	18.15	0	1012.377238	300.9086076	37804	16.1156	11.4158
2010	298	22.78	10	19.26	0.267831436	789.3058313	292.8822202	37655	16.174	12.046
2010	299	20.56	10.56	17.81	0	358.6443465	159.6884315	37507	16.9415	12.6377
2010	300	20.56	11.11	17.96	0.939814336	632.6654051	209.8228366	37361	22.0701	13.4026
2010	301	21.11	12.22	18.67	0	1297.96509	332.1233642	37215	20.3447	12.3738
2010	302	17.78	6.11	14.57	0.01376125	689.7388036	358.5730895	37071	20.1	11.3018912
2010	303	9.44	1.11	7.15	0	444.2267866	155.9733536	36928	19.9	10.1127819
2010	304	14.44	1.67	10.93	0	808.029403	259.3493354	36787	19.725	10.2771835
2010	305	10.56	0	7.65	0	472.1719969	293.7119819	36647	19.525	9.4542414
2010	306	8.89	-2.78	5.68	0	319.3909071	371.8125668	36509	19.35	8.4547544
2010	307	8.89	-3.33	5.53	0	312.2789986	367.1941878	36372	19.25	8.0988623
2010	308	11.67	-1.67	8	1.06781907	83.69635213	355.4632834	36237	22.5	8.6929499
2010	309	7.22	4.44	6.46	0.148926353	175.9257212	54.8098496	36103	22.9	8.7321821
2010	310	7.78	0	5.64	0.016347056	172.1142941	100.7224709	35971	20.6679	8.2053
2010	311	6.67	-1.67	4.38	0	210.7492259	146.9910438	35841	20.3769	7.5741
2010	312	7.22	-1.67	4.78	0	361.6596132	185.7458068	35713	20.1742	7.7737
2010	313	12.78	1.67	9.72	0	368.5225518	335.5141348	35586	20.086	8.297
2010	314	13.33	2.78	10.43	0	419.5066571	310.0616716	35462	20.0072	8.884
2010	315	15.56	-0.56	11.13	0	492.2783269	330.0317213	35339	19.8447	8.2462
2010	316	14.44	-1.67	10.01	0	481.0964535	337.9227122	35219	19.6731	7.6985
2010	317	15.56	-2.78	10.51	0	559.4893169	340.6536752	35100	19.5403	7.4497
2010	318	16.11	-2.22	11.07	0.029475129	579.0470585	335.348102	34984	19.6015748	7.2712497
2010	319	16.11	1.11	11.99	0.141646561	372.2928587	248.0123315	34870	19.63110236	8.2025474
2010	320	11.11	5.56	9.58	1.358695403	152.0840852	203.0266118	34759	20.12322835	8.4183245
2010	321	13.33	6.11	11.35	0.834522455	320.9556925	44.64180784	34649	20.67440945	8.7181706
2010	322	10	4.44	8.47	0.020112001	232.0091213	67.80163279	34542	20.69409449	8.1296876
2010	323	7.22	0.56	5.39	0.045513148	269.3813889	64.19658517	34438	20.72362205	7.6056575
2010	324	8.33	1.67	6.5	0	277.0268488	233.4916997	34336	20.76299213	7.1003094
2010	325	9.44	0	6.85	0	207.7341228	107.2860356	34237	20.74330709	6.8462342
2010	326	10	0.56	7.4	0	298.3917824	257.8959578	34140	20.2803	8.3395
2010	327	16.11	7.78	13.82	0.002832253	539.9005792	237.1552899	34046	20.2027	8.2069
2010	328	16.67	1.11	12.39	0	692.4428835	91.38558049	33954	20.026	7.3275
2010	329	6.11	1.11	4.74	1.713758143	181.2210866	238.7872793	33866	21.7538	6.1559
2010	330	6.67	1.67	5.29	0.769087163	222.6173954	31.3071048	33780	22.3244	6.2087
2010	331	5.56	-1.67	3.57	0	302.8723865	234.1558002	33697	21.2092	5.2543
2010	332	1.67	-1.11	0.9	0	235.2704458	74.68713189	33618	20.9014	5.3464
2010	333	5.56	-4.44	2.81	0	198.9130146	285.5329895	33541	20.29910577	4.8500625
2010	334	7.22	-4.44	4.01	3.310067341	144.0269041	271.9509367	33467	23.81436941	5.8411426
2010	335	15.56	6.11	12.96	3.143135068	217.6643005	35.0959667	33397	26.52790626	7.4375195
2010	336	8.89	-3.33	5.53	0.001751674	225.6602918	59.24984248	33329	23.19765649	5.9121342
2010	337	0	-3.89	-1.07	0.007292948	141.7869422	117.1770329	33265	22.39592969	5.1358971
2010	338	0.56	-3.33	-0.51	0.003402872	141.1717228	105.6861222	33204	22.05673759	4.6641766
2010	339	1.11	-5	-0.57	0.003878706	208.3396032	135.5414228	33146	21.84088807	4.3988922
2010	340	0	-4.44	-1.22	0.000113745	185.6257966	181.157319	33092	21.62503854	3.7945295
2010	341	-1.67	-5.56	-2.74	0.009670218	148.6670345	112.8574196	33041	20.2423	2.6813
2010	342	-2.22	-6.67	-3.44	0	170.1421997	109.4410329	32993	21.25501079	2.8847161
2010	343	-2.22	-7.78	-3.75	0.003	169.1102716	141.160885	32949	21.16250385	2.4438209
2010	344	-1.11	-7.78	-2.94	0.141	92.37163869	278.3194871	32909	21.00832562	2.2289779
2010	345	-1.11	-6.11	-2.49	0.001	125.3133763	68.04100754	32872	20.88498304	2.0729832
2010	346	3.33	-6.67	0.58	1.151	53.99989583	214.0411109	32838	21.31668208	2.4531619
2010	347	6.67	-5.56	3.31	0.019	286.7707843	43.10753475	32808	22.39592969	2.2626055
2010	348	-2.78	-10.56	-4.92	0.026	157.1837901	185.3396376	32782	22.05673759	1.9767709
2010	349	-6.11	-10	-7.18	0.002	133.9123063	131.4019964	32759	20.528	0.491
2010	350	-4.44	-10	-5.97	0	116.3516088	142.4384239	32740	20.3363	0.3202
2010	351	-3.89	-10	-5.57	0	127.3264968	133.26696	32724	20.1663	0.3792
2010	352	-1.11	-6.67	-2.64	0	177.9268931	146.6265591	32712	20.3743	0.4296
2010	353	-0.56	-10.56	-3.31	0	125.3856509	173.7958048	32704	19.9523	0.2943
2010	354	-1.67	-11.11	-4.26	0.006	122.916714	199.5150922	32699	19.9904	0.4359
2010	355	-1.67	-4.44	-2.43	0.001	206.3356866	68.5882317	32698	20.0076	0.5248
2010	356	1.67	-5	-0.17	0	258.9447398	261.5004434	32701	20.1574	0.7378
2010	357	2.78	-3.89	0.94	0.007	253.2793513	154.8191213	32707	20.1292	1.0465
2010	358	1.11	-5	-0.57	0	228.4464871	146.2933032	32717	20.0809	1.1992
2010	359	0.56	-5	-0.97	0.003	180.6076639	237.0277718	32731	19.9974	1.1606
2010	360	-1.11	-6.11	-2.49	0.003	171.8522103	95.08027726	32749	19.9205	0.9987
2010	361	-2.78	-8.89	-4.46	0	194.8111694	94.07567897	32770	19.749	0.7789
2010	362	-2.22	-8.89	-4.06	0	193.5319113	263.7063792	32794	19.7127	0.716
2010	363	1.11	-6.11	-0.88	0	209.7445961	213.9627993	32822	19.7573	0.8949
2010	364	4.44	-7.22	1.24	0.002	149.7636122	237.5259634	32854	19.6696	0.8929
2010	365	3.33	-7.22	0.43	0	147.0148056	124.7939433	32889	19.75158646	0.7418907
2011	1	7.39	-1.28	2.84	0	84.3787873	106.4983601	32928	19.73836594	0.90349
2011	2	7.5	-4.78	1.26	0	225.664475	91.81341179	32971	19.7780275	0.7138677
2011	3	0.61	-8.39	-3.96	0	217.6790354	255.7526426	33017	19.89701216	0.791398
2011	4	5	-4.39	-0.29	0	253.9815858	277.4469243	33066	19.93667372	1.0678916
2011	5	-0.11	-6.5	-3.03	0	203.481149	253.3054742	33119	19.93667372	0.8577191
2011	6	-2.39	-9.61	-5.2	0	105.4472655	168.0186285	33175	19.94989424	0.9735475
2011	7	-2.61	-7.61	-5.33	0	106.5431119	184.05705	33234	19.9234532	0.6036439
2011	8	-5.39	-8.5	-7.09	0	88.42337644	208.1397465	33296	19.89701216	0.6877129
2011	9	-3.5	-8.78	-6.31	0	133.8076982	207.6969007	33362	19.89701216	0.6363374
2011	10	-3.5	-9.5	-6.15	0	129.429187	173.2978972	33431	19.88379164	0.6307328
2011	11	-4.22	-11.72	-7.45	0	53.77304574	187.1560457	33503	19.85735061	0.7848593
2011	12	-4.11	-7.28	-5.92	0	107.3329835	100.7141964	33579	19.80446854	0.6531512
2011	13	-3.11	-8.28	-6.06	0	147.5667999	147.5780373	33657	19.7780275	0.6279305
2011	14	-3.39	-8.78	-6.26	0	122.1872403	250.2651609	33738	19.75158646	0.62326
2011	15	1.72	-8.72	-2.95	0	160.3978308	271.0920703	33822	19.69870439	0.9791521
2011	16	-2.22	-7.5	-5.41	0	179.606131	103.4272317	33909	19.72514543	0.3888009
2011	17	-4.5	-10.28	-6.84	0	137.349134	295.4089532	33999	19.72514543	0.763375
2011	18	0	-6	-3.32	0	84.28723335	120.8398451	34092	19.68548387	0.8138164
2011	19	2	-2.5	0.46	0	90.55330943	210.3413578	34187	19.68548387	0.8960172
2011	20	-2.5	-5.28	-4.06	0	134.581899	63.88683098	34285	19.69870439	0.5802914
2011	21	-5.22	-13.61	-8.16	0	118.1069811	151.4850811	34386	19.73836594	0.4289672
2011	22	-8	-17.39	-12.18	0	91.80237929	192.6419438	34489	19.7780275	0.3953396
2011	23	-6.72	-13.89	-9.73	0	139.1887977	331.1368406	34595	19.76480698	0.5335864
2011	24	-5.22	-20.72	-12.04	0	99.02286654	270.1701294	34703	19.71192491	0.5457297
2011	25	-1.61	-6	-3.93	0	144.67623	244.9866146	34814	19.6326018	0.604578
2011	26	0	-6	-2.9	0	53.46332571	76.97423123	34926	19.59294024	0.6830424
2011	27	0	-3.39	-2.25	0	145.8585162	76.53347412	35042	19.59294024	0.5896324
2011	28	-0.72	-4.72	-2.64	0	96.94449149	164.1406752	35159	19.60616076	0.6811742
2011	29	-0.78	-6	-3.54	0	78.13710559	171.825557	35278	19.60616076	0.6176554
2011	30	0	-5.89	-2.16	0	170.2172043	90.65779661	35400	19.60616076	0.5971052
2011	31	-3.78	-13.5	-6.84	0	149.8316548	151.9707795	35523	19.5	1.2836
2011	32	-0.61	-6.11	-3.21	0	65.09552564	341.8779489	35649	19.5219	1.4483
2011	33	3.39	-5.11	-0.76	0	101.2420678	88.65831843	35776	19.8444	1.2146
2011	34	-2.22	-8.5	-5.83	0	164.4112643	172.7234647	35905	20.3435	1.2086
2011	35	0.39	-9.5	-4.56	0	134.4763957	336.3994616	36036	20.2949	1.0028
2011	36	2.5	-6.5	-2.4	0.41	72.83014978	247.7796456	36169	20.2388	1.0396
2011	37	1.5	-1.28	-0.19	0	189.4808243	110.5108669	36303	20.311	1.2573
2011	38	4.11	-0.61	0.91	0.46	154.4813626	194.2923161	36440	20.7038	1.3558
2011	39	0.11	-12.78	-5.59	0.11	130.8822062	173.4586762	36577	21.3825	1.0133
2011	40	-3.72	-12.61	-8.11	0	177.4190287	275.276419	36716	21.0838	0.883
2011	41	-6.22	-12.61	-9.36	0	154.3806332	247.2097295	36857	20.7485	0.4089
2011	42	0	-12.5	-5.98	0	188.1663526	395.414768	36999	20.4866	0.3098
2011	43	0.22	-3.78	-1.98	0	243.9724771	353.8812428	37143	20.4078	0.2611
2011	44	7.61	-5	2.18	0	327.2388831	217.9404618	37287	21.0967	0.342
2011	45	9	-0.72	5.03	0	343.6643219	291.6928112	37433	22.908	0.3823
2011	46	2.11	-6.61	-2.39	0	273.5628661	124.7360102	37581	22.4823	0.5829
2011	47	8.78	-4.11	2.83	0	420.855031	409.8800657	37729	22.6592	1.2015
2011	48	16.39	1.5	8.39	0	471.5663644	323.7427862	37879	22.7724	2.6042
2011	49	18.78	5	12.15	0	741.2598755	302.0868811	38029	22.1364	4.1209
2011	50	5.78	-2.5	0.34	0	366.7199823	261.3725151	38181	21.578	3.1343
2011	51	3.89	-5.5	-0.85	0.25	283.0744631	198.5375124	38334	21.2465	2.3919
2011	52	0	-9	-3.14	1.61	66.82485302	305.4605971	38487	21.3085	1.7791
2011	53	-2.11	-11	-7.34	0.56	121.037933	95.58338078	38642	21.391	1.4146
2011	54	2.39	-14.28	-5.63	0.01	145.8429263	424.6009073	38798	21.222	1.0263
2011	55	2.22	-8.89	-2.23	0.04	143.1852252	450.1178313	38954	21.2231	0.9145
2011	56	1	-2.5	-0.03	2.19	89.88812531	149.90596	39111	22.1608	0.7044
2011	57	1.72	-6.11	-1.47	0	204.4900323	85.74870763	39269	22.0912	1.2429
2011	58	8.72	0.28	3.86	0	314.9767432	315.0007609	39428	22.4079	2.528
2011	59	12.72	-1.11	5.55	1.55	172.927989	311.4301412	39587	22.7806	3.0669
2011	60	5.11	-4.61	-0.25	0	277.9108256	49.63710469	39747	21.9731	2.5424
2011	61	6.5	-7.22	0.76	0	297.98789	443.1894404	39907	21.6685	2.2099
2011	62	0.11	-11	-5.06	0	250.5570745	408.9868224	40068	21.5059	1.5953
2011	63	5.89	-2.28	1.76	0	439.1743867	445.2839672	40230	21.4152	2.0544
2011	64	12.89	3.5	8.23	0.55	322.1445045	305.715711	40392	21.4669	3.2602
2011	65	10.5	-2.5	4.67	4.3	72.79807383	193.9366046	40555	23.5577	4.4915
2011	66	4.22	-4.5	-0.56	1.03	117.0776683	44.14666732	40718	22.7952	2.8318
2011	67	5	-7.11	-0.91	0	236.7162771	488.3361626	40882	22.6322	2.1854
2011	68	3.72	-0.39	1.98	0.44	238.7076464	386.7552989	41046	22.6058	2.0787
2011	69	10	3.11	6.28	3.01	92.1446856	178.5083718	41210	23.4658	1.6954
2011	70	3.61	0	1.27	0.11	160.4499372	117.1632145	41375	22.9187	2.3644
2011	71	13.72	0	6.2	0	439.634628	108.6356765	41540	22.3468	3.1941
2011	72	5.28	1.72	3.1	0	296.8357061	336.4970627	41705	22.0443	3.3679
2011	73	7	-0.72	2.65	0	335.2385801	81.1868641	41870	21.8213	3.5679
2011	74	6.72	-4.28	1.93	0.3	224.5723728	357.4961462	42036	21.6493	3.113
2011	75	9	1.5	4.91	0.61	119.3623168	230.4166627	42202	22.6301	3.7269
2011	76	17.78	3.11	10.11	0	460.2264635	115.3606731	42368	22.2978	5.115
2011	77	22.89	10.72	17.01	0	1097.657604	411.1503738	42534	22.1558	6.9074
2011	78	11.61	0	5.71	0	490.412759	315.4225896	42701	21.9215	6.055
2011	79	9.28	-4.61	2.99	0	349.8854003	456.0646418	42867	21.6536	5.3034
2011	80	22.22	2.39	9.98	0.71	377.5470406	467.2418377	43033	22.1763	5.9677
2011	81	10.78	1.28	6.64	0.01	408.6421882	323.0413889	43200	22.154	6.4206
2011	82	1	0	0.43	2.81	50.81572214	288.9037495	43366	23.2866	4.3883
2011	83	1.89	-3.22	-0.23	0.16	138.7570156	24.92936393	43533	22.9824	4.0394
2011	84	2.11	-6.22	-2.57	0	242.6441757	219.4789126	43699	22.2819	3.2259
2011	85	2	-6.61	-2.51	0	285.3082225	418.6064288	43865	21.979	3.211
2011	86	3.89	-6.39	-1.41	0	357.9925084	510.5396984	44032	21.7673	3.3612
2011	87	5.11	-7.5	-1.44	0	355.0638923	534.8530929	44198	21.558	3.0537
2011	88	7.78	-5.89	0.93	0	398.5031271	536.8791786	44363	21.4209	3.3205
2011	89	7.22	-5.11	0.53	0.47	241.1811655	526.3012643	44529	21.2824	3.153
2011	90	2.5	0	1.16	0.09	53.48355753	183.6876832	44695	21.9497	3.1726
2011	91	4.72	0.5	2.17	0.16	151.2320475	127.7076906	44860	22.521	3.5228
2011	92	9	-1.22	3.72	0	306.5880573	168.9902943	45025	22.1437	3.6283
2011	93	10.39	2.11	5.54	0.19	390.7609258	310.3414694	45190	21.9958	4.3695
2011	94	17.28	4	10.05	1.12	400.0246809	333.8918067	45354	22.5808	5.7038
2011	95	14.11	0.22	4.98	0.97	215.5069238	187.2107298	45518	23.6537	5.5574
2011	96	6.11	-2.11	2.67	0.04	207.7211206	109.618419	45681	22.5056	4.5392
2011	97	10	2.5	4.76	0	240.3717709	188.2826262	45845	22.223	5.9571
2011	98	5.28	2.72	4.03	2.6	112.3452463	328.6970244	46007	23.5292	5.5014
2011	99	7.11	3.39	5.37	0	121.5676908	44.03890056	46169	22.9213	5.4414
2011	100	15.72	6.22	10.2	0	170.0950817	82.30083529	46331	22.413	6.3774
2011	101	24	9.61	16.29	0.43	447.001849	216.0080014	46492	22.5978	7.9864
2011	102	15	7.22	9.66	0.96	256.124102	188.8084368	46653	23.5412	8.1297
2011	103	10	6	7.77	1.21	123.5951486	113.2604618	46813	23.8627	7.5536
2011	104	19	3	11.71	0	633.1270564	91.34158648	46972	22.8494	7.9704
2011	105	16	3	9.38	0	559.1321743	522.5219282	47131	22.4952	7.4807
2011	106	11	5	7.28	2.28	154.4284276	498.6451818	47289	22.12	8.445162
2011	107	13	2	8.52	0.06	533.5421598	36.35712178	47446	22.05333333	7.9978944
2011	108	17	3	9.68	0	627.2491852	323.2308306	47602	21.57333333	8.1065424
2011	109	9	6	7.04	1.18	114.0064435	271.3151514	47758	21.85333333	8.2541226
2011	110	23	8	14.21	0	461.2472047	46.62596009	47912	22.06666667	8.8408218
2011	111	12	3	7.59	0	606.8573761	291.0947655	48066	21.66666667	9.0716988
2011	112	5	1	3.14	0.56	247.9605478	483.8413074	48219	21.42666667	8.087529
2011	113	21	4	10.66	0.45	250.0726257	113.8662808	48370	22.14666667	7.9435704
2011	114	21	14	17.03	0.01	608.8599143	262.7108675	48521	21.84	9.5868714
2011	115	27	12	18.82	0.16	775.0269762	141.2506215	48671	21.69333333	10.8770664
2011	116	27	13	19.34	1.89	632.2923089	449.7010795	48819	22.33333333	12.3003552
2011	117	26	13	19.72	0	533.9737631	389.1268431	48966	22.70666667	13.0110942
2011	118	22	11	17.66	3.58	907.1091089	258.0631007	49112	23.29333333	14.1772494
2011	119	12	5	9.06	0	432.4672732	478.4025418	49257	22.21333333	12.786555
2011	120	19	5	10.82	0	613.36622	212.766948	49401	21.82666667	11.7399126
2011	121	15	9	11.57	0.38	388.0855019	501.2703712	49543	21.65333333	11.6647644
2011	122	19	10	14.35	0	277.6751801	75.22482539	49683	21.66666667	11.5850892
2011	123	23	7	15.24	2.62	310.1178453	224.6086546	49823	22.29333333	12.3311388
2011	124	11	6	7.56	0.6	277.1896219	176.3702762	49960	22.90666667	11.8078176
2011	125	17	5	10.84	0	767.1197213	176.3151749	50096	22.14666667	11.2165914
2011	126	19	4	12.47	0	778.3354059	564.2022655	50231	21.82666667	11.3804688
2011	127	18	6	11.88	0	562.7036944	432.1937136	50363	21.62666667	11.6113458
2011	128	20	5	13.19	0	659.2513541	346.4833548	50495	21.41333333	11.7308586
2011	129	20	8	13.71	0	922.9908254	489.2338417	50624	21.24	12.1654506
2011	130	23	5	14.58	0	957.131792	580.6207759	50751	20.98666667	12.2233962
2011	131	24	10	17.83	0	1171.392749	535.7381135	50877	20.73333333	12.7793118
2011	132	25	9	18.15	0	773.8154761	566.3514118	51000	20.48	13.0554588
2011	133	19	16	17.37	0	356.7163025	398.9480067	51122	20.25333333	13.239255
2011	134	17	15	15.47	0.13	141.2905438	335.2574306	51241	20.18666667	13.0246752
2011	135	20	14	15.39	1.72	136.8350824	71.01625842	51358	20.90666667	13.0726614
2011	136	18	10	13.68	0.03	268.4205069	143.1583743	51473	22.08	13.0971072
2011	137	16	10	12.79	1.03	141.4360494	267.0395456	51586	22.44	12.9694458
2011	138	18	12	14.46	1.84	158.981868	75.55419077	51697	23.38666667	13.062702
2011	139	19	10	13.59	0.97	162.2604528	142.6460959	51805	23.22666667	12.9259866
2011	140	21	12	14.91	1.17	264.7202233	218.9709497	51910	23.05333333	12.9803106
2011	141	24	11	17.78	0	462.1649319	259.0549083	52014	22.93333333	13.3216464
2011	142	22	14	17.72	0	321.1734508	415.8411751	52114	22.25333333	13.7806842
2011	143	23	16	18.94	3.23	248.354826	243.9350532	52212	22.74666667	14.5231122
2011	144	23	18	20.25	0	586.9197024	312.7111149	52308	22.74666667	15.1034736
2011	145	26	13	20.18	0	685.6475961	247.1658206	52400	22.16	15.1143384
2011	146	29	17	22.78	0.74	733.7509326	518.5779006	52490	21.8	15.5923896
2011	147	24	15	18.88	2.9	350.6688658	487.9796489	52577	23.85333333	15.8187396
2011	148	25	16	20.36	0.14	448.5789061	326.9772132	52662	23.37333333	15.7716588
2011	149	29	19	23.73	0.01	720.0551821	510.1689513	52743	22.50666667	16.2551424
2011	150	32	20	26.48	0	1069.704861	479.4401658	52821	21.97333333	16.9305708
2011	151	32	19	26.33	0	965.9918924	508.808719	52896	21.38666667	17.3651628
2011	152	31	21	25.75	0	1365.070514	497.4265891	52969	20.70666667	17.6639448
2011	153	22	13	18.92	0	1364.624624	492.0100117	53038	19.94666667	17.0527998
2011	154	24	7	16.29	0	963.8769135	596.3567407	53103	19.24	15.9029418
2011	155	23	9	15.31	0.47	390.9244259	601.869315	53166	18.86666667	15.2229864
2011	156	29	15	20.97	0	933.6911812	319.5470174	53225	18.88	15.5471196
2011	157	27	12	19.93	0	843.3819276	494.9626509	53281	18.22666667	15.620457
2011	158	27	14	20.39	0	526.3971994	576.8095211	53334	17.68	15.6195516
2011	159	33	16	24.94	0	892.1196537	308.175524	53383	17.25333333	16.1464944
2011	160	33	21	25.37	0.03	695.1483207	519.3977428	53429	16.72	16.9432464
2011	161	28	18	22.32	1.2	519.6388179	396.3324793	53471	16.44	16.9360032
2011	162	27	17	21.47	1.98	435.4991709	421.4760419	53510	20.53333333	17.1578262
2011	163	27	15	20.89	0.08	610.7062267	417.5602473	53546	20.29333333	17.1270426
2011	164	22	10	16.38	0	707.3865301	429.6393788	53577	19.52	16.24971
2011	165	21	12	15.72	0.05	596.3239381	375.0018655	53606	18.73333333	15.6394704
2011	166	25	7	16.89	0	613.9134419	380.959407	53630	18.04	15.1116222
2011	167	21	13	16.33	1.23	236.5529763	563.3436283	53651	18.61333333	15.2601078
2011	168	25	14	18.46	0	406.7323878	153.2193631	53669	19.97333333	15.4873632
2011	169	27	15	21.02	0	656.5307334	343.926996	53682	19.10666667	15.8866446
2011	170	27	15	21.25	0	713.4913007	459.2224499	53693	18.09333333	16.2334128
2011	171	26	17	21.09	0	805.7968275	427.2692415	53699	17.30666667	16.6055322
2011	172	28	18	23.08	1.52	494.9294917	394.9672638	53702	18.41333333	17.150583
2011	173	28	21	24.01	0.01	591.6746848	461.0399061	53701	18.26666667	17.6476476
2011	174	26	18	22.53	0.05	500.3190562	362.8600641	53696	17.68	17.8079034
2011	175	22	17	19	0.34	302.8778545	300.2261027	53688	17.24	17.2302582
2011	176	20	15	17.65	0	348.3183233	199.2726358	53676	17.12	16.7829906
2011	177	21	14	17.59	0	404.5443554	152.4038128	53661	16.73333333	16.4298846
2011	178	24	12	18.75	0	440.3235084	265.8781156	53641	16.32	16.2524262
2011	179	28	18	21.88	0	599.76661	399.8502397	53619	15.97333333	16.802004
2011	180	24	15	19.56	0	914.0166007	375.1277616	53592	15.42666667	16.9215168
2011	181	26	12	19.51	0	810.6846789	497.310836	53562	14.73333333	16.4642898
2011	182	28	11	20.17	0	906.7756684	560.832913	53529	14.08	16.2107778
2011	183	29	11	21.57	0	774.1260504	577.7603522	53491	13.50666667	16.3366284
2011	184	30	21	24.92	0	1017.411159	477.2231389	53451	13.16	17.2510824
2011	185	28	17	22.61	0	855.2423093	363.1635553	53407	12.70666667	17.3262306
2011	186	30	16	23.39	0	1003.205145	415.0450908	53359	12.24	17.2963524
2011	187	32	15	24.01	0	1223.751224	536.381106	53308	11.77333333	17.2212042
2011	188	30	18	23.71	0	808.2997693	542.5817591	53254	11.41333333	17.5426212
2011	189	24	18	21.22	0.1	299.1231615	399.9035078	53196	11.17333333	17.5869858
2011	190	27	16	19.92	0	905.6180049	175.3265456	53135	11.02666667	17.449365
2011	191	31	21	26.38	0	1377.987153	567.6949558	53071	10.66666667	17.4602298
2011	192	33	19	25.86	0	1144.131538	550.6774583	53004	10.38666667	17.9084028
2011	193	32	21	25.9	0	1427.08363	426.382578	52933	10.17333333	18.4941966
2011	194	29	19	23.16	0	1136.18012	478.8738744	52860	9.813333333	18.2850492
2011	195	28	13	20.94	0	1131.296629	401.4770854	52783	9.4	17.644026
2011	196	28	13	21.53	0	1144.726678	575.7728782	52703	8.7841	17.5582
2011	197	29	14	22.41	0	1139.097196	547.3620296	52620	8.6224	17.1097
2011	198	32	17	24.96	0	1261.36161	570.7450652	52535	8.5168	17.6163
2011	199	34	19	25.81	0	1134.736791	489.4187164	52446	8.429	18.2425
2011	200	33	21	25.54	0	1171.155025	440.0261484	52355	8.3709	19.0312
2011	201	35	19	26.74	0	1369.187191	344.7729856	52261	8.2802	19.3708
2011	202	38	21	29.47	0	1574.897963	403.7978108	52164	8.201	19.9737
2011	203	39	26	32.11	0	2339.225967	531.7984058	52065	8.136	20.9769
2011	204	34	24	28.82	0	1897.36019	507.9938225	51963	7.9399	20.7417
2011	205	33	21	27.11	0	1376.589892	436.3805006	51858	7.8191	20.7338
2011	206	28	20	21.94	2.03	341.0123866	381.5118935	51751	11.3579	19.9744
2011	207	31	17	24.1	0	966.3012202	224.0688587	51642	14.2295	19.5003
2011	208	30	14	22.52	0	1107.672088	460.8337667	51530	12.7012	18.9008
2011	209	23	18	20.53	2.2	353.3895006	551.3809829	51417	14.5935	18.6167
2011	210	33	19	25.12	0.06	477.6366291	127.8992398	51300	17.5056	19.2137
2011	211	32	19	25.54	0	1271.705597	362.4820445	51182	15.4626	19.4637
2011	212	31	16	22.17	0	1126.565505	569.9095022	51062	14.089	19.0444
2011	213	33	17	22.54	0.01	777.155927	539.0855533	50939	13.1008	19.1681
2011	214	31	18	24.97	0	1187.275515	473.7288596	50815	12.2997	19.1129
2011	215	24	19	21.46	0.66	340.4327358	492.6163194	50688	12.2498	19.1408
2011	216	27	20	22.46	0	474.8510758	95.50005934	50560	12.6358	19.3272
2011	217	26	18	21.81	0	424.0453407	377.3233988	50430	12.3926	19.0965
2011	218	24	20	21.8	2.35	227.4922383	253.4205137	50298	13.5822	19.3387
2011	219	29	20	24.11	0.39	465.4171522	147.7657882	50164	16.9196	19.8478
2011	220	29	20	23.28	0	567.7703852	285.9237043	50029	16.9024	19.814
2011	221	27	18	21.44	0.58	440.0451226	299.5737794	49892	16.8246	19.3526
2011	222	26	18	21.92	0	841.1497484	372.7830928	49754	16.7918	19.0665
2011	223	25	13	19.44	0	846.0195116	375.2114726	49614	15.4253	18.3063
2011	224	26	11	18.97	0	674.8649338	500.1602725	49472	14.3442	17.6335
2011	225	25	14	19.57	0.19	346.1828453	543.4491587	49330	13.8201	17.7868
2011	226	25	17	20.31	1.54	343.3923465	283.7916074	49186	15.135	18.6445
2011	227	23	17	18.31	0.33	153.9111197	235.9377447	49040	19.0209	18.2952
2011	228	28	16	21.83	0.01	820.6692543	140.3907228	48894	18.6051	18.5114
2011	229	28	13	20.77	0	698.1679452	458.480224	48746	16.4735	18.3697
2011	230	28	16	22.32	0	741.0306576	537.4631973	48597	15.2729	18.7581
2011	231	25	15	18.66	0.52	315.1752515	496.6542955	48446	14.6587	18.2713
2011	232	28	14	20.79	0	523.4158561	324.4836318	48295	15.0785	18.3889
2011	233	26	17	20.37	0.03	388.3266346	501.6421079	48143	14.6068	18.6235
2011	234	23	15	19.81	0	953.2911748	266.3639508	47990	13.8984	18.1187
2011	235	24	10	17.44	0	649.9710147	476.7352621	47836	13.0353	17.0965
2011	236	26	14	20.49	0	761.7834781	543.8703047	47681	12.4201	17.3788
2011	237	26	19	22.33	0.53	570.6827336	327.2718148	47525	12.5692	18.4111
2011	238	26	14	20.47	0	597.6503404	264.0164246	47368	12.5187	18.3617
2011	239	25	17	20.37	0.21	342.6153535	436.4130693	47210	12.2201	18.5555
2011	240	23	14	19.47	2.38	523.4013539	199.0182777	47052	14.5512	18.4013
2011	241	22	10	15.92	0	506.5942163	251.8999851	46893	16.2525	16.9424
2011	242	25	10	17.23	0	590.833605	532.3161296	46734	15.2288	16.4662
2011	243	25	11	18.24	0	498.883311	545.1846563	46573	14.3337	16.6541
2011	244	24	15	19.55	0.21	351.5993171	388.0563204	46413	13.9342	17.124
2011	245	23	19	21.31	0	423.4286166	328.0867873	46251	13.7575	17.8768
2011	246	31	20	24.32	0	564.1490699	174.7021849	46089	13.4524	18.6861
2011	247	29	19	23.03	0.12	506.0827016	429.2613713	45927	13.0404	19.2269
2011	248	21	14	17.36	2.38	124.4651845	359.9799624	45764	13.3561	18.1742
2011	249	15	13	14.11	3.37	83.44901551	83.52776316	45600	17.624	16.4271
2011	250	17	14	15.25	5.57	108.8916616	57.1932566	45437	21.1706	15.8881
2011	251	21	16	18.17	0.99	183.9549208	109.136707	45272	21.0438	17.0535
2011	252	24	17	19.98	0.13	206.9057144	171.1613461	45108	21.3201	17.7885
2011	253	25	18	20.44	0.08	293.156313	152.4101195	44943	20.7601	18.1459
2011	254	22	15	17.87	0.26	240.3999785	269.2845147	44778	20.3428	17.8151
2011	255	23	13	18.06	0	327.0662801	259.0078677	44613	20.1801	17.5976
2011	256	26	14	20.19	0	510.8971019	448.5574504	44447	19.6934	17.6205
2011	257	25	17	20.19	0.56	367.5146226	452.4085951	44281	19.4342	17.8308
2011	258	18	7	12.87	0.71	268.5256219	216.6577355	44115	21.7276	16.5819
2011	259	16	5	10.29	0	293.6481955	78.84834695	43949	20.9063	14.8826
2011	260	15	7	10.62	0	272.6941802	391.9074983	43783	20.3163	14.6566
2011	261	18	6	12.03	0	351.3726941	357.9413531	43617	19.8004	14.6024
2011	262	16	8	12.74	0.75	257.6482696	490.683061	43450	19.5628	14.6443
2011	263	21	14	16.79	0.23	196.3728771	293.2874965	43284	21.5884	15.7119
2011	264	22	15	18.51	0.01	274.4685525	207.334462	43117	20.9683	16.715
2011	265	23	17	20.11	0	313.2125903	247.847035	42951	20.6276	16.0043466
2011	266	20	16	17.96	1.1	127.1620299	235.2374953	42784	21.3408	16.2026292
2011	267	22	14	17.54	0	321.2252091	98.87639026	42618	21.6457	16.231602
2011	268	27	16	19.94	0	362.4658668	391.0123905	42452	21.044	16.543965
2011	269	25	18	20.83	0	390.0969181	292.5209289	42286	20.6817	16.924233
2011	270	21	17	19.35	4.32	166.0025522	292.1411918	42120	21.9796	17.2854876
2011	271	22	17	19.08	1.94	166.3470113	144.1488773	41954	22.5203	17.3887032
2011	272	18	11	15.07	0.38	211.9542313	135.0366134	41788	22.3821	16.7359098
2011	273	15	10	13.11	0.01	282.5723169	206.9905581	41623	21.8926	15.4629174
2011	274	10	5	7.97	0.84	131.0824398	102.7541608	41458	21.7872	13.9843992
2011	275	7	3	5.09	1.86	79.75047454	46.40152084	41293	22.7528	11.8331688
2011	276	11	5	7.69	0.2	81.81947773	105.1682754	41129	22.182	11.6330754
2011	277	16	7	11.28	0.02	161.5475376	186.8919783	40964	21.9129	12.1065996
2011	278	21	9	14.11	0.01	422.8299574	128.2861204	40801	21.5349	12.732231
2011	279	18	3	10.46	0	367.8988448	434.1498388	40637	21.1118	12.2759094
2011	280	21	3	11.44	0	317.6694278	456.3357711	40474	20.8023	12.1400994
2011	281	23	6	14.17	0	350.8764046	429.1208821	40312	20.5655	12.5031648
2011	282	26	8	15.44	0	384.7241277	423.7729265	40150	20.3547	12.9232704
2011	283	22	9	15.14	0	259.9311488	418.7590337	39989	20.1756	13.203039
2011	284	20	9	15.07	0	312.4661567	281.2095511	39828	20.0208	13.4465916
2011	285	12	11	11.8	1.49	138.3215105	231.2936698	39667	21.6356	13.5479964
2011	286	16	12	14	0.84	94.68750386	51.03234788	39508	23.5874	13.4873346
2011	287	16	9	13.29	1.25	222.6972078	139.1742611	39349	23.9903	13.8485892
2011	288	14	9	11.18	0	575.3819567	88.57926565	39191	23.1929	12.8245818
2011	289	17	9	12.17	0.16	643.5249797	289.4279968	39033	22.786	12.5891778
2011	290	17	7	11.61	0.17	580.2550671	266.6118428	38876	22.9896	12.437976
2011	291	19	10	13.86	0	908.5849883	416.7839876	38720	22.58260105	12.3782196
2011	292	17	12	14.69	1.18	405.4649941	331.4184623	38565	22.75834798	13.1206476
2011	293	14	7	8.98	1.05	311.4003266	100.3929603	38411	24.47815717	12.7295148
2011	294	9	5	6.92	0	260.7722241	111.5659993	38258	23.46133568	11.5570218
2011	295	10	4	7.78	0	282.0575436	113.286884	38106	23.13494853	11.215686
2011	296	15	0	7.49	0	250.4022003	101.5067843	37955	22.92154155	10.604541
2011	297	14	6	9.76	0.12	255.222486	358.105756	37804	22.75834798	10.984809
2011	298	15	7	10.44	0	491.0023087	179.9770548	37655	22.67047452	10.993863
2011	299	18	4	11.28	0.08	323.2649972	330.4374917	37507	22.53238765	11.0871192
2011	300	14	1	7.28	0.96	109.7539375	154.2768127	37361	23.12239518	11.2799694
2011	301	6	-2	2.48	0.02	180.439483	34.93575171	37215	23.57431584	9.662925
2011	302	3	0	0.66	1.64	47.81927445	194.7597313	37071	24.51581722	8.413473
2011	303	6	-3	0.86	0.02	112.3594484	65.79495234	36928	24.05134321	7.2618042
2011	304	8	-3	2.08	0	169.975924	378.8091445	36787	23.54920914	7.3921818
2011	305	12	0	5.78	0	252.8037555	204.5833493	36647	23.28558875	7.7443824
2011	306	14	0	6.79	0.01	250.2820004	354.6736695	36509	23.09728848	7.8186252
2011	307	17	2	8.58	0	321.9482497	332.0181183	36372	22.98430831	8.250501
2011	308	10	1	6.6	0	465.1227612	300.886994	36237	22.9340949	8.73489
2011	309	10	-2	4.08	0	369.6619987	355.1987369	36103	22.74579463	7.6493154
2011	310	12	1	5.57	0	338.2175578	357.5857218	35971	22.60770776	7.132332
2011	311	19	0	9.18	0	333.559344	350.68151	35841	22.544941	7.340574
2011	312	20	4	11.64	0.02	475.7059347	330.8304539	35713	22.53238765	8.0667048
2011	313	18	2	10.69	0.01	474.7463512	329.5105098	35586	22.46962089	8.2649874
2011	314	12	2	6.26	0.22	309.8020774	334.9518358	35462	22.53238765	8.7222144
2011	315	5	0	1.64	0.01	244.0258988	113.8071253	35339	22.48217424	7.5370458
2011	316	15	-1	6.96	0	382.9928512	142.546296	35219	23.31069546	6.8679552
2011	317	19	6	11.68	0	645.6130953	316.0548433	35100	23.58686919	7.4247762
2011	318	18	10	12.61	0.03	443.9936583	196.3298651	34984	23.59942255	8.1798798
2011	319	13	10	11.46	0.65	93.35891379	108.2716949	34870	23.82538288	9.2636436
2011	320	12	6	9.48	0.86	87.09643646	63.74199488	34759	25.13093146	9.5669526
2011	321	5	-1	2.11	0	283.0021727	41.13555947	34649	25.25646498	8.517594
2011	322	5	-4	0.52	0	328.9102572	130.3402814	34542	24.64135074	6.774699
2011	323	10	-2	4.47	0	462.0117995	309.8082351	34438	24.37773035	6.2685804
2011	324	16	5	10.85	0.07	457.3885046	298.6127097	34336	24.25219684	7.1757912
2011	325	12	4	6.36	0.48	104.6270259	78.22501972	34237	24.42794376	8.0630832
2011	326	8	2	5.02	4.02	56.92103198	84.42530756	34140	26.09753954	7.9462866
2011	327	9	2	5.95	1.56	150.4518932	21.85366857	34046	26.4741401	7.9399488
2011	328	9	1	4.35	0	218.3235245	46.7916593	33954	25.11837811	6.996522
2011	329	15	2	8.19	0	384.815776	265.4625288	33866	24.77943761	6.7357668
2011	330	17	5	10.49	0	463.963222	286.743132	33780	24.60369069	6.8905902
2011	331	15	4	10.69	0.03	374.1226631	222.0108615	33697	24.47815717	7.3532496
2011	332	17	12	14.6	0	480.5841491	142.5290023	33618	24.46560382	8.4116622
2011	333	16	3	12.62	1.15	247.3911582	142.3283146	33541	25.23135827	9.3514674
2011	334	4	1	2.52	0.17	151.4504894	34.30722802	33467	25.53263871	8.255028
2011	335	7	-1	2.01	0	243.5794366	91.56930263	33397	24.98029124	6.8761038
2011	336	7	-3	1.31	0	164.0506581	279.0978427	33329	24.66645744	6.005109
2011	337	6	-4	0.84	0	163.6137885	192.9748985	33265	22.6976	7.4552
2011	338	10	1	5.22	0	245.146767	272.5988435	33204	22.6094	8.5879
2011	339	12	3	6.96	0.03	223.0663977	264.0441682	33146	22.532	9.4649
2011	340	13	7	11.13	0.47	67.4978519	123.8833555	33092	22.8208	12.1556
2011	341	7	0	3.67	3.35	54.44580384	40.02009624	33041	24.4632	10.4709
2011	342	2	-3	-0.58	0	160.4110426	14.14845573	32993	23.7277	8.1422
2011	343	5	-4	0.55	0	157.4686792	147.25412	32949	23.1934	7.8715
2011	344	1	-5	-0.97	0	223.6229024	268.6023276	32909	22.9413	7.2269
2011	345	2	-8	-3.33	0.01	164.4757764	202.2674312	32872	22.7572	5.7936
2011	346	4	-8	-2.54	0	149.3445085	269.1620988	32838	22.6579	4.7547
2011	347	8	-7	-0.04	0	179.1375684	249.5285296	32808	24.13921667	2.736615
2011	348	6	0	2.48	0.13	194.9766365	256.9205357	32782	24.08900326	3.3758274
2011	349	14	3	8.05	0.29	177.9291617	76.2523276	32759	24.17687673	4.4577804
2011	350	8	0	2.16	0	313.4938194	52.01472205	32740	24.41539041	4.8624942
2011	351	1	-3	-0.52	0	204.032953	160.3439677	32724	24.3400703	4.325592
2011	352	0	-4	-2.26	0.05	101.7329631	85.38224505	32712	24.26475019	3.8937162
2011	353	7	-4	2.24	0	161.1203799	114.5955235	32704	24.16432337	3.4989618
2011	354	6	1	3.06	0.47	101.0956681	131.381449	32699	24.22709013	4.3418892
2011	355	9	2	5.28	1.6	60.20162889	38.10875283	32698	25.99711273	4.9494126
2011	356	9	6	7.61	0.38	273.3833598	27.8774961	32701	25.69583229	5.810448
2011	357	6	-1	3.02	0.86	173.5496946	79.08765708	32707	26.1603063	5.8412316
2011	358	2	-2	-0.17	0	211.8539392	61.69398172	32717	25.10582476	4.7837244
2011	359	8	-3	2.49	0	240.7086345	199.9029361	32731	24.74177755	4.07208
2011	360	3	-2	1.18	0.01	223.6356529	251.7825277	32749	24.56603063	4.0757016
2011	361	4	-1	1.93	1.69	116.4362494	116.3527617	32770	25.4573186	3.6890958
2011	362	2	-6	-1.83	0.1	165.6504913	34.93828139	32794	25.44476525	3.5804478
2011	363	0	-8	-3.72	0.04	106.2776828	68.2196088	32822	24.86731107	2.8171956
2011	364	4	-2	1.19	0	97.87431307	126.4368418	32854	24.64135074	2.890533
2011	365	7	0	3.92	0.06	115.7987919	109.3815561	32889	24.64135074	3.5225022
