"Shalehills,"	2012	:	input	for	MTCLIM	v4.3				
MTCLIM	v4.3	OUTPUT	FILE	:	Mon	Jan	16	16:32:50	2012	
	yday	Tmax	Tmin	Tday	prcp	VPD	srad	daylen	SoilW	SoilT
		(degC)	(degC)	(degC)	(cm)	(Pa)	(Wm-2)	(s)	(%)	(deg C)
2008	1	4.44	-2.78	2.46	0.18	162.1754386	107.3576895	32928	24.84118681	2.213607307
2008	2	3.89	-5.56	1.29	0.02	187.1368421	242.3626217	32971	24.84500867	1.922296567
2008	3	-3.33	-11.11	-5.47	0	101.5438596	153.795681	33017	24.77801385	1.521006839
2008	4	-4.44	-10.56	-6.13	0	79.34736842	210.6844795	33066	24.48993615	0.939721136
2008	5	3.33	-9.44	-0.18	0.07	213.3263158	184.7731816	33119	24.30289022	-0.345185197
2008	6	5.56	-0.56	3.88	0.02	153.9578947	216.999156	33175	24.42096296	-0.415981387
2008	7	7.78	5	7.01	0.06	91.50175439	201.3661912	33234	24.75701615	0.205822891
2008	8	18.89	6.11	15.38	0	564.2736842	215.6980118	33296	24.82320163	1.953353386
2008	9	19.44	8.33	16.39	0.06	537.6280702	150.879084	33362	24.78120622	4.759821242
2008	10	11.67	-0.56	8.31	0.05	356.7017544	204.7227424	33431	24.66206255	6.114855876
2008	11	7.78	-0.56	5.49	2.31	221.4175439	101.7295765	33503	26.88574267	5.318064788
2008	12	10.56	2.78	8.42	0	250.8	220.641115	33579	25.88599119	4.350071592
2008	13	6.11	-2.22	3.82	0	199.2421053	135.333987	33657	25.20741015	4.34840187
2008	14	3.89	-2.22	2.21	0.12	138.4210526	111.5724702	33738	24.8515283	3.402003738
2008	15	2.78	-2.78	1.25	0	119.7754386	163.3214476	33822	24.61273	2.816933333
2008	16	-1.11	-2.78	-1.57	0	32.70175439	175.9470937	33909	24.44569259	2.669775214
2008	17	0	-3.33	-0.92	0.77	65.66315789	56.70431483	33999	24.24578726	1.815657022
2008	18	2.22	-2.22	1	0.13	96.6877193	269.1626188	34092	24.10748119	1.616960167
2008	19	2.78	-6.67	0.18	0	173.9508772	105.2589581	34187	24.080998	1.320974206
2008	20	-1.11	-12.22	-4.17	0	146.877193	205.0519469	34285	24.01269926	1.305056195
2008	21	-10	-13.89	-11.07	0	37.60701754	306.8234165	34386	25.44029031	0.557466233
2008	22	-5	-13.89	-7.44	0	98.44210526	78.45701528	34489	25.05736874	-0.340621291
2008	23	2.78	-6.11	0.33	0	167.4526316	314.5387484	34595	24.75346407	-0.846992157
2008	24	-2.78	-7.78	-4.15	0	76.32280702	179.3039219	34703	24.49029585	-0.990365575
2008	25	-2.22	-10	-4.36	0	109.6210526	321.8284598	34814	24.2651663	-1.084092607
2008	26	-3.89	-10	-5.57	0.04	82.45614035	144.0329554	34926	24.07052163	-1.074630852
2008	27	-2.78	-8.33	-4.31	0	82.82807018	171.1772159	35042	23.94615407	-0.965431067
2008	28	-0.56	-5	-1.78	0	80.60350877	214.1984129	35159	24.37775356	-1.224905784
2008	29	2.22	-2.22	1	1.4	96.6877193	60.02176994	35278	24.66070548	-1.137301064
2008	30	5.56	-1.11	3.72	0.5	164.3087719	331.9026836	35400	24.6774317	-0.948177279
2008	31	0.56	-8.89	-2.04	0	149.9578947	310.5629592	35523	26.6623217	-0.781427761
2008	32	1.11	-7.78	-1.33	2.72	149.9017544	46.30497349	35649	25.21985185	-0.702616907
2008	33	2.78	-2.22	1.4	0	110.245614	73.32927102	35776	24.97038889	-0.56369608
2008	34	1.11	-5.56	-0.72	0	123.1789474	260.4022003	35905	24.69706944	-0.358431654
2008	35	6.11	-5	3.06	0.03	238.077193	38.36863137	36036	24.43113889	-0.441138524
2008	36	5	0.56	3.78	1.03	115.4596491	80.53543089	36169	24.20090278	-0.266819602
2008	37	13.33	3.33	10.58	1.38	351.2280702	78.46806049	36303	24.08895105	-0.205930426
2008	38	16.67	1.67	12.54	0.01	536.0421053	45.74489572	36440	24.05873611	0.363555913
2008	39	3.33	-1.11	2.11	0.06	103.8526316	123.2830467	36577	24.08775	2.950844996
2008	40	2.22	-2.22	1	0.78	96.6877193	138.0326833	36716	24.46370833	1.803412398
2008	41	4.44	-1.67	2.76	0.21	143.4385965	181.0377947	36857	24.63825	1.298377309
2008	42	-1.11	-16.67	-5.39	0	170.5473684	361.1028676	36999	24.47443056	0.731339896
2008	43	-8.89	-16.67	-11.03	1.95	68.41403509	67.61667071	37143	24.30402778	0.190684083
2008	44	-3.33	-11.67	-5.63	0.53	106.2385965	88.37750422	37287	24.202625	-0.209047239
2008	45	0.56	-7.78	-1.74	0	138.5403509	386.4039751	37433	24.16998611	-0.414534295
2008	46	2.22	-7.78	-0.53	0	173.5438596	48.00670552	37581	25.82798611	-0.612006688
2008	47	2.78	-11.11	-1.04	0	213.5157895	360.9479711	37729	30.88545833	-0.299991402
2008	48	2.22	-10.56	-1.29	0.58	197.9649123	113.6486708	37879	28.88415278	-0.151163561
2008	49	8.89	-0.56	6.29	0.09	257.7403509	149.1559073	38029	27.50966667	0.119887892
2008	50	8.33	-4.44	4.82	0	295.9298246	268.2594484	38181	29.35793056	0.163078025
2008	51	-1.11	-10	-3.56	0	128.9964912	278.4670527	38334	29.12140278	0.098793525
2008	52	-3.89	-12.78	-6.33	0.01	106.4491228	408.2062515	38487	27.15173611	-0.19727907
2008	53	-2.22	-12.78	-5.13	1.06	132.2526316	81.46348533	38642	26.72233333	-0.515904735
2008	54	-2.78	-5.56	-3.54	0.06	46.58245614	206.2048044	38798	26.41920833	-0.411221415
2008	55	1.67	-8.89	-1.24	0	172.5333333	423.5156852	38954	25.80193056	-0.17214651
2008	56	5	-8.89	1.18	0	247.7824561	333.055432	39111	25.18843056	-0.35685733
2008	57	2.78	-5	0.64	0.8	153.2701754	48.759836	39269	25.04233333	-0.24401498
2008	58	1.67	-3.33	0.29	0	102.5754386	224.413843	39428	24.87805556	-0.37769163
2008	59	-2.22	-11.67	-4.82	1.54	124.0421053	367.6338697	39587	24.77977778	-0.309315605
2008	60	1.67	-12.22	-2.15	0.38	197.9789474	241.4387501	39747	24.72283333	-0.629861695
2008	61	1.67	-5.56	-0.32	0	135.3192982	267.2369008	39907	25.73452778	-0.51580583
2008	62	4.44	-5.56	1.69	0	200.9473684	350.9771139	40068	25.61863889	-0.388471495
2008	63	15.56	1.67	11.74	4.65	483.3684211	414.2868009	40230	25.55690278	-0.22715855
2008	64	7.78	1.67	6.1	1.32	176.9894737	20.58868093	40392	25.61105556	-0.322147545
2008	65	4.44	-2.78	2.46	0	162.1754386	93.01013439	40555	25.62538889	0.17939676
2008	66	7.78	-2.78	4.88	1.4	257.2491228	421.6082568	40718	25.46355556	1.461668375
2008	67	7.22	-1.11	4.93	1.64	213.8035088	111.9551392	40882	25.19291667	1.050895585
2008	68	3.33	-7.22	0.43	0	192.8140351	38.96711007	41046	25.04433333	1.8456395
2008	69	0	-6.67	-1.83	0	114.4140351	427.5723125	41210	24.85984615	1.53105751
2008	70	6.11	-3.89	3.36	0	223.8807018	307.5047976	41375	25.25486111	1.44874571
2008	71	6.11	1.11	4.74	0.01	136.2807018	266.7002889	41540	25.14230556	1.79295858
2008	72	4.44	-3.33	2.31	0	170.8210526	151.646709	41705	24.96531944	1.7706683
2008	73	13.33	-3.33	8.75	0.31	456.6035088	411.4743253	41870	24.83959722	2.6601301
2008	74	15	3.89	11.94	0.04	414.0701754	323.0455086	42036	24.78763889	3.382382825
2008	75	10	1.11	7.56	0	265.5368421	247.5309227	42202	24.77966667	4.31498916
2008	76	5.56	-3.89	2.96	0	208.5403509	163.6050793	42368	24.71934722	4.24478452
2008	77	7.78	-3.89	4.57	0.35	272.2807018	462.9329948	42534	25.22963889	4.17827718
2008	78	5.56	2.22	4.64	1.48	93.68421053	53.51101848	42701	25.50986111	3.475303505
2008	79	12.78	1.67	9.72	0	362.0140351	76.81797187	42867	25.262625	4.253823395
2008	80	3.89	-2.78	2.06	0	147.677193	336.8751888	43033	25.06316667	4.20934939
2008	81	6.11	-2.78	3.67	1.19	207.922807	468.9779398	43200	24.94108333	3.980307205
2008	82	5.56	-6.11	2.35	0	235.8736842	285.277683	43366	24.87194444	3.231957935
2008	83	6.11	-5.56	2.9	0	244.554386	510.7787885	43533	24.78891667	3.196977855
2008	84	5.56	-4.44	2.81	0	216	376.0483535	43699	25.00286111	2.331098905
2008	85	9.44	-3.89	5.78	0	324.4350877	479.0154337	43865	25.52988889	2.85526708
2008	86	12.22	1.67	9.32	0.34	339.4175439	323.6223883	44032	25.33177778	4.08044401
2008	87	6.67	2.22	5.44	0.4	128.1684211	57.97117517	44198	25.23602778	3.9195326
2008	88	7.22	-2.78	4.47	0	240.3929825	70.15533215	44363	25.08973611	4.77307703
2008	89	7.22	-4.44	4.01	0	262.7508772	531.2154326	44529	24.95969444	4.23726651
2008	90	10	-4.44	6.03	0	348.8912281	497.9753216	44695	24.85005556	4.173990095
2008	91	13.33	4.44	10.89	0.16	325.3473684	225.2769728	44860	24.76504167	4.809537
2008	92	21.11	1.11	15.61	0	779.5157895	172.8890394	45025	24.69334722	6.45443466
2008	93	8.33	-2.78	5.28	0.16	274.5263158	466.8634875	45190	25.56780556	6.141611625
2008	94	9.44	-2.22	6.24	0.8	302.6736842	317.4336773	45354	27.18611111	5.02175
2008	95	11.67	3.33	9.38	0.13	281.5789474	112.3247726	45518	27.10865278	5.6682
2008	96	12.22	4.44	10.08	0	277.5157895	277.5338981	45681	26.72851389	7.10075
2008	97	15	4.44	12.1	0	401.4596491	405.2141564	45845	26.30181944	7.42335
2008	98	8.33	5.56	7.57	0	94.65263158	126.1629535	46007	25.50691667	6.8692
2008	99	14.44	6.11	12.15	0	332.6807018	261.7510234	46169	25.46955556	7.7144
2008	100	16.11	6.11	13.36	0	414.5754386	256.6507954	46331	27.00468056	8.8719
2008	101	20.56	6.67	16.74	0.88	649.7052632	479.4604878	46492	27.88743056	10.19095
2008	102	20	11.67	17.71	0.05	459.0105263	143.7465115	46653	28.21280556	10.9265
2008	103	18.33	3.89	14.36	0.24	581.7052632	457.5626642	46813	27.14422222	11.57935
2008	104	8.33	0.56	6.19	0	218.6315789	169.5090905	46972	26.75602778	8.7401
2008	105	10.56	-2.22	7.04	0	340.6947368	401.2751692	47131	26.23923611	7.59235
2008	106	15	0	10.88	0	484.5333333	561.5878957	47289	25.45226389	7.94165
2008	107	20	2.22	15.11	0	701.6982456	552.2627197	47446	25.84961111	8.8012
2008	108	26.11	7.22	20.92	0	1022.021053	554.4629847	47602	25.42356944	10.06395
2008	109	28.33	10.56	23.44	0	1130.484211	537.8415763	47758	25.182875	11.82375
2008	110	27.22	12.22	23.1	3.33	984.1192982	416.5839038	47912	24.9495	12.3466
2008	111	15.56	12.78	14.79	0.03	144.8140351	114.7453709	48066	24.78716667	11.96155
2008	112	21.11	11.67	18.51	0	532.8070175	275.9571123	48219	25.1175	12.90025
2008	113	22.22	10	18.86	0	666.6666667	413.340583	48370	25.36656944	13.34245
2008	114	23.89	10.56	20.22	0	768.9403509	420.1529441	48521	25.19846154	13.2891
2008	115	22.22	11.11	19.17	0	629.8245614	519.813544	48671	28.38386363	13.44345
2008	116	25	11.11	21.18	2.54	836.3719298	386.4334788	48819	27.20683687	13.30905
2008	117	27.22	10.56	22.64	0	1034.203509	392.209431	48966	26.52347607	14.7437
2008	118	19.44	7.22	16.08	2.13	568.5824561	410.8230982	49112	26.18256689	14.65545
2008	119	11.11	5	9.43	0	217.0666667	85.5561443	49257	27.22080667	11.5407
2008	120	13.89	2.78	10.83	0	387.2912281	439.6441772	49401	27.43887704	11.30595
2008	121	12.22	3.33	9.78	0	304.245614	404.569364	49543	27.30493237	9.6434
2008	122	15	3.89	11.94	0	414.0701754	256.0311173	49683	26.9913157	9.24785
2008	123	23.33	9.44	19.51	1.33	761.6350877	312.3472894	49823	27.20502467	11.3079
2008	124	19.44	10	16.85	0.15	484.7017544	286.4218775	49960	27.49463111	13.06775
2008	125	16.67	2.78	12.85	0	516.7719298	382.8252355	50096	27.21689489	12.4557
2008	126	20.56	5.56	16.43	0	674.7789474	539.717107	50231	26.55715333	12.18575
2008	127	22.78	8.33	18.81	0	752.9473684	415.900959	50363	26.06791133	12.5102
2008	128	26.11	12.78	22.44	0.21	870.1122807	487.7954253	50495	25.66962941	12.9852
2008	129	21.11	6.67	17.14	0.99	684.2807018	207.1066688	50624	25.30785741	13.98776864
2008	130	12.22	7.78	11	0	179.5649123	103.0653977	50751	24.97639044	12.43538679
2008	131	18.33	6.67	15.12	0.28	518.9263158	380.0835348	50877	24.59550919	12.16331852
2008	132	16.11	1.11	11.99	2.12	518.3789474	223.787451	51000	24.17312711	10.68867365
2008	133	10	2.22	7.86	0	242.4	136.5087242	51122	23.68982022	9.653329626
2008	134	22.22	7.22	18.1	0.12	743.0105263	573.336625	51241	23.30833333	10.71415934
2008	135	21.67	10	18.46	0.01	628.645614	286.9728961	51358	23.16138889	11.47555233
2008	136	22.78	8.89	18.96	1.32	738.0280702	412.6879141	51473	22.86466667	12.82613437
2008	137	11.11	5.56	9.58	0.25	201.5017544	64.68117319	51586	22.55348611	11.78823551
2008	138	18.89	6.67	15.53	0.37	550.5192982	215.1321547	51697	22.51033333	11.0772681
2008	139	15.56	4.44	12.5	0.05	428.0421053	236.0624843	51805	23.0135	11.02428227
2008	140	12.78	4.44	10.49	0.98	301.1508772	337.4939703	51910	22.99288889	10.41360947
2008	141	12.78	6.11	10.94	0.47	256.322807	149.0528896	52014	22.74579167	9.769319611
2008	142	15	6.11	12.56	0.12	359.3473684	291.2318379	52114	22.38413986	9.776109812
2008	143	13.33	6.67	11.5	0	264.9403509	377.579158	52212	21.95622222	10.4874955
2008	144	18.89	6.11	15.38	0	564.2736842	488.9290166	52308	21.54861111	10.64493505
2008	145	21.67	6.11	17.39	0	731.9578947	530.3457634	52400	21.40848611	11.70602865
2008	146	23.89	9.44	19.92	0	801.9157895	583.9905125	52490	21.17988889	12.32514185
2008	147	29.44	13.89	25.17	0	1131.242105	490.009624	52577	20.91163889	13.68599865
2008	148	27.22	7.22	21.72	0	1109.866667	328.5980403	52662	20.74444444	15.7458
2008	149	19.44	6.11	15.78	0	596.3157895	585.2339268	52743	20.62598601	13.6456541
2008	150	24.44	8.33	20.01	0	871.8105263	570.3446546	52821	20.35720833	12.8332277
2008	151	26.11	12.22	22.29	0.22	889.5859649	459.8854545	52896	20.30055556	13.24891495
2008	152	27.22	17.78	24.62	0	745.4877193	352.9051143	52969	20.32265278	16.19585
2008	153	25.56	10	21.28	0	913.1789474	486.2564576	53038	20.30651389	15.83315
2008	154	25	13.33	21.79	1.03	757.5298246	542.0388867	53103	20.21226389	14.7199
2008	155	27.78	15	24.26	1.13	930.4982456	379.1178573	53166	20.05238889	14.92795
2008	156	21.11	17.78	20.19	0	232.4	90.04834194	53225	19.91719444	15.8703
2008	157	28.33	19.44	25.89	0	758.1894737	345.9921548	53281	19.86480556	17.69855
2008	158	32.78	20.56	29.42	0	1181.515789	525.1338733	53334	19.78256944	19.75805
2008	159	33.33	23.33	30.58	0	1067.480702	518.1060825	53383	19.72629545	20.3471
2008	160	32.22	22.78	29.62	0	969.2842105	429.2805031	53429	19.48665672	20.88285
2008	161	33.89	21.67	30.53	1.2	1251.333333	544.4346842	53471	19.49756944	21.20935
2008	162	32.22	15.56	27.64	0	1357.122807	410.0632218	53510	19.60154167	20.4175
2008	163	28.33	16.11	24.97	0	934.1684211	575.5212714	53546	19.59133333	19.22775
2008	164	30.56	17.78	27.04	0.04	1079.873684	545.3852399	53577	19.53244444	19.02045
2008	165	31.67	19.44	28.31	0.07	1115.017544	437.034623	53606	19.43845833	19.39675
2008	166	25	15.56	22.4	0	661.0736842	181.2395301	53630	19.284625	19.5199
2008	167	27.22	16.67	24.32	1.49	803.0315789	548.206464	53651	19.09666667	19.1311
2008	168	26.67	13.89	23.15	0.01	875.8596491	355.7539921	53669	19.02105556	17.9407
2008	169	19.44	13.33	17.76	0.14	352.6877193	299.6079692	53682	19.24101389	16.1749
2008	170	18.89	8.89	16.14	0	487.4385965	230.6295793	53693	19.46805556	15.14865
2008	171	20	11.11	17.56	0	480.1614035	342.9473361	53699	19.45323611	14.20735
2008	172	26.11	13.33	22.6	0.22	849.5789474	471.4200588	53702	19.36152778	15.6237
2008	173	28.33	15	24.67	0.81	982.3789474	515.138638	53701	19.26088889	16.8744
2008	174	26.67	15.56	23.61	0.11	805.2491228	539.7242811	53696	19.18515278	18.0169
2008	175	25.56	12.78	22.04	0	823.9719298	482.1374236	53688	18.95659722	17.7385
2008	176	25	13.33	21.79	0	757.5298246	423.956815	53676	18.70516667	16.69244455
2008	177	27.22	15	23.86	0.19	879.6982456	441.7024282	53661	18.47506944	16.53507709
2008	178	28.33	18.33	25.58	1.16	822.3719298	305.0543614	53641	18.29502778	19.77382394
2008	179	26.67	19.44	24.68	0	595.7403509	276.8843134	53619	17.98198611	18.86728082
2008	180	28.89	18.89	26.14	0.13	847.0035088	350.0097029	53592	17.63766667	20.05335
2008	181	27.22	17.22	24.47	0.05	774.9263158	308.2490012	53562	17.30752778	19.3376
2008	182	25.56	15.56	22.81	0	708.1122807	417.4633376	53529	17.02372222	18.9632
2008	183	22.78	13.33	20.18	0	584.9122807	300.6619244	53491	16.73645833	17.7518
2008	184	27.22	15	23.86	0.02	879.6982456	560.1282857	53451	16.42352778	17.6469
2008	185	25.56	18.33	23.57	0.02	561.3684211	231.8553748	53407	16.23468056	17.48035
2008	186	23.89	17.78	22.21	2.12	450.7157895	199.8697127	53359	16.12191667	17.9903
2008	187	24.44	16.11	22.15	0	587.5438596	256.6897839	53308	16.07323611	18.2758
2008	188	27.78	17.22	24.88	0.01	827.3754386	370.6546738	53254	16.11822222	19.03245
2008	189	27.22	18.89	24.93	0	682.4421053	297.1433942	53196	16.29031944	19.8773
2008	190	30.56	18.89	27.35	0.44	1022.140351	501.4656629	53135	16.34354167	20.706
2008	191	26.67	16.11	23.76	0	779.2982456	190.4580091	53071	16.31868056	20.2408
2008	192	26.67	15	23.46	0	829.9649123	565.0716361	53004	16.18322222	19.67715
2008	193	28.33	16.67	25.12	0	908.1964912	471.9697353	52933	16.01359722	18.99085
2008	194	31.11	19.44	27.9	0.33	1052.449123	520.0338063	52860	15.86805556	20.29945
2008	195	27.78	17.22	24.88	0	827.3754386	355.3178675	52783	15.81918056	21.0425
2008	196	26.67	15.56	23.61	0	805.2491228	522.2584862	52703	15.69241667	19.9782
2008	197	28.33	16.11	24.97	0	934.1684211	560.3976055	52620	15.51763889	18.9195
2008	198	31.11	17.22	27.29	0	1166.105263	557.7513277	52535	15.30476389	19.58915
2008	199	31.67	20	28.46	0.12	1083.508772	438.8623918	52446	15.08570833	20.62975
2008	200	32.22	21.11	29.17	0	1081.25614	413.3001242	52355	14.92740278	21.18095
2008	201	31.67	20	28.46	0.39	1083.508772	517.5354854	52261	14.86430556	21.55435
2008	202	32.22	18.89	28.56	0.38	1208.421053	409.5625719	52164	14.78243056	20.95795
2008	203	29.44	18.33	26.39	0.02	934.6666667	405.7065783	52065	14.63769444	21.16395
2008	204	28.89	19.44	26.29	1.3	814.6315789	414.7642553	51963	14.46705556	21.0514
2008	205	23.33	15	21.04	1.03	552.8491228	134.2814223	51858	14.30076389	19.43055
2008	206	25	14.44	22.1	0	711.6350877	347.1107418	51751	14.14508333	18.31515
2008	207	27.78	15.56	24.42	0	906.5894737	534.5950002	51642	14.00820833	18.77596619
2008	208	28.33	18.33	25.58	0	822.3719298	433.7922375	51530	13.86080556	19.35544576
2008	209	27.22	15.56	24.01	0	855.3824561	487.9174592	51417	13.83761111	19.9019
2008	210	28.89	17.22	25.68	0	935.6210526	493.0210721	51300	13.81561111	19.23745
2008	211	30	17.78	26.64	0.52	1021.207018	475.7485444	51182	13.71033333	20.05945
2008	212	29.44	18.33	26.39	0	934.6666667	331.2877091	51062	13.59379167	19.7367
2008	213	28.89	17.78	25.83	0	907.4596491	465.3030487	50939	13.48069444	20.8136
2008	214	28.33	18.89	25.74	0.01	791.0035088	488.1866181	50815	13.36591667	20.1486
2008	215	27.78	16.11	24.57	0	881.4526316	403.8918087	50688	13.23276389	20.2156
2008	216	25.56	15	22.65	0	733.6140351	401.7587619	50560	13.10697222	19.1711
2008	217	27.78	16.67	24.72	0.1	855.0596491	479.2455879	50430	13.02681944	19.2206
2008	218	24.44	19.44	23.07	0.39	394.4982456	146.635572	50298	12.94525	19.4773
2008	219	28.89	16.67	25.53	0.05	962.4561404	530.552428	50164	12.87140278	20.61315
2008	220	26.67	14.44	23.31	0.1	853.4947368	348.5250954	50029	12.82344444	18.8205
2008	221	23.89	12.22	20.68	0	712.2807018	435.3575924	49892	12.74548611	17.9118
2008	222	24.44	13.89	21.54	0.02	690.2175439	512.9065603	49754	12.65415278	17.38265
2008	223	25	14.44	22.1	0.04	711.6350877	470.5948724	49614	12.60409722	17.5137
2008	224	21.67	14.44	19.68	0	453.9789474	312.5321596	49472	12.68559722	17.00075
2008	225	24.44	12.78	21.24	0.55	734.6105263	409.6248125	49330	12.83066667	17.6683
2008	226	27.78	13.89	23.96	0	974.7929825	429.6788924	49186	12.92170833	17.9102
2008	227	25.56	15.56	22.81	0	708.1122807	329.5958401	49040	12.97277778	18.0322
2008	228	25.56	12.78	22.04	0	823.9719298	440.5088354	48894	13.00169444	17.7728
2008	229	25.56	14.44	22.5	0	757.9157895	485.5606204	48746	13.00447222	17.27935
2008	230	27.22	15	23.86	0	879.6982456	479.3240941	48597	12.97548611	17.6468
2008	231	29.44	17.22	26.08	0	991.4596491	519.4066383	48446	12.95429545	18.18035
2008	232	26.11	10	21.68	0	957.4807018	374.7148773	48295	12.95200438	18.58929042
2008	233	25.56	11.11	21.58	0	880.4421053	558.3377853	48143	12.90664533	17.24955165
2008	234	29.44	12.78	24.86	0	1168.575439	536.697562	47990	12.81616155	17.2958071
2008	235	30	16.11	26.18	0	1099.087719	528.263379	47836	16.73458724	18.75732132
2008	236	27.78	17.78	25.03	0	798.3508772	487.5682976	47681	16.85100781	18.75765
2008	237	31.11	18.89	27.75	0.13	1082.968421	468.8788006	47525	16.46344132	18.96575
2008	238	27.78	12.78	23.65	0.256919669	1014.603509	525.5087823	47368	17.02705078	19.33638419
2008	239	26.11	13.33	22.6	0	849.5789474	521.6431053	47210	18.11598585	17.5128489
2008	240	26.67	13.89	23.15	1.931221361	875.8596491	430.7492561	47052	18.09778533	17.41485
2008	241	17.78	15.56	17.17	0.154643927	133.9719298	84.78493592	46893	17.99400052	16.6106
2008	242	21.11	16.67	19.89	0.019685469	298.2175439	151.1140497	46734	17.86469314	17.3095
2008	243	27.22	12.22	23.1	0	984.1192982	303.0324007	46573	17.69101415	18.69755
2008	244	27.22	13.33	23.4	0	945.6491228	536.7217159	46413	17.49545269	17.6182
2008	245	26.67	12.78	22.85	0	917.2561404	540.0980303	46251	17.29692057	17.28785
2008	246	29.44	14.44	25.32	0	1110.919298	528.1481265	46089	17.01465306	17.4063
2008	247	30.56	15.56	26.43	0	1179.347368	507.259673	45927	16.94772222	18.23675
2008	248	31.67	16.11	27.39	0	1274.596491	481.1607814	45764	16.81704167	18.8439
2008	249	31.11	20.56	28.21	0.318008268	986.9403509	451.3041667	45600	16.74169444	19.24425
2008	250	22.78	12.78	20.03	0	607.6070175	102.935339	45437	16.56611111	19.5216941
2008	251	25	13.89	21.94	0	735.1508772	420.2074571	45272	16.36479167	18.89395845
2008	252	26.67	13.89	23.15	2.472082587	875.8596491	477.720094	45108	16.24084722	18.32317355
2008	253	20	9.44	17.1	0.025357557	537.7473684	103.7893554	44943	16.35459722	17.86586435
2008	254	21.11	10.56	18.21	0	572.877193	485.4580151	44778	17.20230556	16.7763486
2008	255	20.56	13.33	18.57	2.352550719	426.7087719	303.217672	44613	18.22163889	16.3194652
2008	256	21.11	18.33	20.35	0.222390424	197.4105263	84.06061151	44447	18.32061111	17.4625253
2008	257	24.44	19.44	23.07	0.011863613	394.4982456	200.9966803	44281	18.355375	18.8934262
2008	258	29.44	18.89	26.54	0	904.1824561	374.1760172	44115	18.40801389	20.48538595
2008	259	22.78	11.67	19.72	0	649.7964912	298.3259232	43949	18.40375	19.8472182
2008	260	20	9.44	17.1	0	537.7473684	226.0229313	43783	18.39069444	17.0993179
2008	261	23.33	10	19.67	0	745.277193	475.0160029	43617	18.36829167	16.496598
2008	262	21.11	7.78	17.44	0	656.7087719	442.9891369	43450	18.33423611	16.6505247
2008	263	20.56	8.33	17.19	0	606.2245614	419.7895989	43284	18.28872727	15.574741
2008	264	21.11	10	18.06	0	591.4526316	409.7163764	43117	18.26073611	15.3267
2008	265	24.44	10	20.47	0	827.4035088	407.9027962	42951	18.23997222	15.31365
2008	266	19.44	7.78	16.24	0	553.522807	190.3744858	42784	18.19390278	15.3428
2008	267	21.11	8.89	17.75	0	625.8315789	410.743606	42618	18.12318056	14.7214
2008	268	23.33	9.44	19.51	0	761.6350877	461.1823942	42452	18.05986111	14.64315
2008	269	20.56	11.11	17.96	0.003747898	516.3438596	365.7231471	42286	18.02627778	14.7417
2008	270	17.78	12.22	16.25	0.523215553	297.5859649	85.06794872	42120	17.98427778	14.98
2008	271	21.11	16.67	19.89	2.148666677	298.2175439	146.5197597	41954	17.96320833	16.6565
2008	272	22.22	13.89	19.93	0	519.9087719	216.5280942	41788	17.94831944	17.7887
2008	273	20.56	10	17.65	0.053687621	555.0736842	270.7031689	41623	17.91873611	16.87245
2008	274	18.33	10	16.04	0.125669315	417.4245614	189.9629987	41458	17.85144444	14.72015
2008	275	15.56	8.33	13.57	0.004633213	320.5614035	173.7329329	41293	17.77356944	13.9001
2008	276	12.78	8.33	11.56	0.021512976	185.5578947	241.5923071	41129	17.70588889	12.65225
2008	277	15	5	12.25	0.245488242	388.154386	164.1662924	40964	17.665375	11.9979
2008	278	14.44	6.11	12.15	0.10475532	332.6807018	231.4760913	40801	17.61311111	11.2182
2008	279	16.67	7.78	14.22	0	396.3438596	416.6164825	40637	17.56725	12.1258
2008	280	16.67	2.22	12.69	0	526.7087719	375.476627	40474	17.52979167	11.93035
2008	281	16.67	2.78	12.85	0.034555732	516.7719298	432.2290881	40312	17.89472222	10.4685
2008	282	16.67	7.22	14.07	0.052800421	412.7508772	218.5872478	40150	18.89706944	11.0458
2008	283	21.67	8.89	18.15	0	662.4070175	389.0816224	39989	19.0955	14.1025
2008	284	21.11	6.11	16.99	0	696.8982456	422.8133725	39828	19.18830556	13.1402
2008	285	21.11	5.56	16.83	0	708.7719298	416.9137066	39667	19.21426389	12.3683
2008	286	22.78	7.78	18.65	0	767.0315789	407.251139	39508	19.24697222	12.72915
2008	287	25	8.89	20.57	0	899.6140351	307.6376782	39349	19.30802778	12.97375
2008	288	26.11	8.89	21.37	0.003419935	985.8385965	340.0631778	39191	19.37172222	13.6969
2008	289	23.33	12.78	20.43	0.012276874	649.0245614	314.6322343	39033	19.44184615	15.47455
2008	290	20	8.89	16.94	0.060760695	555.0877193	96.48724149	38876	19.49663889	15.17105
2008	291	12.22	2.78	9.62	0	316.6035088	154.1217459	38720	19.53893056	11.8067
2008	292	10.56	-1.11	7.35	0	324.5192982	289.662077	38565	19.579875	9.71505
2008	293	11.67	-1.11	8.15	0	365.1789474	411.4896254	38411	19.61920833	8.8219
2008	294	16.11	-0.56	11.53	0.021685473	541.9649123	367.0695802	38258	19.66894444	8.32075
2008	295	10.56	2.78	8.42	0	250.8	217.2820028	38106	19.69229167	8.8508
2008	296	9.44	0.56	7	0	256.554386	281.3326044	37955	19.70386111	8.6595
2008	297	12.22	0.56	9.01	0	359.8245614	390.2720612	37804	19.71144444	7.9614
2008	298	13.89	6.67	11.9	2.518724922	290.6175439	167.6808392	37655	19.70369444	8.20045
2008	299	14.44	3.33	11.39	0	400.4912281	43.15066521	37507	19.68958333	10.13145
2008	300	16.67	3.89	13.15	0.048908441	494.9824561	364.9315329	37361	19.92944444	9.15925
2008	301	8.89	3.89	7.51	0.039355786	161.8526316	251.9830713	37215	20.52190278	9.41425
2008	302	6.67	1.11	5.14	0.224549745	153.4105263	98.94246176	37071	20.895375	8.0013
2008	303	4.44	-0.56	3.07	0.009507193	122.6666667	103.6515923	36928	21.394875	5.91905
2008	304	8.89	-0.56	6.29	0	257.7403509	369.0951695	36787	21.541875	6.11765
2008	305	18.33	3.33	14.21	0	592.1684211	351.7090076	36647	21.60151389	6.9241
2008	306	17.78	4.44	14.11	0	540.7368421	231.4742118	36509	21.62172222	9.2709
2008	307	9.44	3.89	7.92	0.00872804	182.1403509	187.2377103	36372	21.62091667	8.784
2008	308	14.44	7.22	12.46	0.01	300.322807	258.375031	36237	21.64177778	9.2251
2008	309	13.89	8.89	12.51	0	218.3298246	100.4017395	36103	21.66679167	9.91035
2008	310	18.33	8.89	15.74	0	454.7368421	257.0485669	35971	21.667125	11.10225
2008	311	20	10	17.25	0	519.4947368	242.4719176	35841	21.66677778	12.03555
2008	312	21.67	9.44	18.31	0.24	645.9719298	308.8003248	35713	21.65722222	12.4942
2008	313	12.78	4.44	10.49	0	301.1508772	134.4137582	35586	21.80234722	11.18095
2008	314	8.33	1.67	6.5	0	195.6070175	146.6516271	35462	22.14920833	8.90545
2008	315	3.89	0.56	2.97	0	84.36491228	155.6687512	35339	22.40330556	7.33
2008	316	4.44	0	3.22	0.07	111.4736842	123.6229308	35219	22.67784722	6.5888
2008	317	10	0.56	7.4	1.44	276.2175439	228.2574359	35100	23.05018056	7.1132
2008	318	8.89	5.56	7.97	0.01	115.0035088	38.74857078	34984	24.49247222	7.4553
2008	319	11.67	8.33	10.75	0.58	135.8245614	94.88379696	34870	24.42456944	8.9628
2008	320	13.33	2.22	10.28	0.05	374.4701754	41.89573923	34759	24.25452778	9.84665
2008	321	5	0.56	3.78	0.04	115.4596491	114.7539612	34649	24.12415278	7.0304
2008	322	2.78	-3.89	0.94	0	137.4175439	119.3574779	34542	24.03583333	5.45965
2008	323	-0.56	-6.67	-2.24	0	103.4105263	215.6341251	34438	23.93776389	3.51725
2008	324	0	-5.56	-1.53	0	99.83157895	222.922472	34336	23.81723611	2.5636
2008	325	3.89	-2.78	2.06	0.15	147.677193	126.9326752	34237	23.71066667	3.3882
2008	326	-1.11	-6.67	-2.64	0	92.70175439	141.2762742	34140	23.59127778	3.0426
2008	327	-1.67	-6.11	-2.89	0	74.85614035	179.2016683	34046	24.16752778	2.1493
2008	328	2.78	-6.67	0.18	1.34	173.9508772	289.8008482	33954	25.05019444	1.91465
2008	329	2.22	-5.56	0.08	0.33	147.7754386	81.5214079	33866	26.65313889	1.5204
2008	330	3.89	0	2.82	0	96.26666667	162.728952	33780	26.45775	2.1598
2008	331	1.67	0	1.21	0	39.15789474	90.9198445	33697	25.399125	2.33665
2008	332	5.56	-2.22	3.42	0	183.4526316	263.3917544	33618	24.479	2.5579
2008	333	5.56	-1.11	3.72	0	164.3087719	229.6326884	33541	24.48791667	2.2084
2008	334	5.56	-3.33	3.11	1.09	200.645614	268.2057549	33467	24.64959722	2.73103633
2008	335	3.89	0	2.82	0.05	96.26666667	25.89807468	33397	24.93077778	2.344013925
2008	336	6.11	0	4.43	0	159.4596491	120.3406043	33329	25.73040278	3.269932985
2008	337	2.22	-5	0.24	0	140.3578947	121.3659402	33265	27.79095833	2.915501165
2008	338	6.67	-4.44	3.61	0	246.7719298	271.7797253	33204	26.74704167	2.13444621
2008	339	7.78	-3.89	4.57	0	272.2807018	29.142883	33146	26.08330556	3.150860905
2008	340	-1.67	-8.33	-3.5	0	102.2736842	141.4201015	33092	25.04141667	0.94325
2008	341	-1.67	-8.33	-3.5	0.03	102.2736842	134.0420084	33041	24.82083333	0.5483
2008	342	-3.89	-9.44	-5.42	0	76.76491228	144.8592732	32993	28.70394444	0.28805
2008	343	-1.11	-8.89	-3.25	0.04	118.2526316	78.60147501	32949	26.83577778	0.3242
2008	344	11.67	-2.22	7.85	1.43	380.6105263	176.9446656	32909	26.88941667	1.9335
2008	345	12.22	-1.11	8.56	2.17	386.2526316	30.39005841	32872	26.77970833	2.8442
2008	346	1.67	-1.11	0.9	0.34	62.37894737	20.18929289	32838	26.63780556	2.6497
2008	347	1.67	-6.11	-0.47	0	142.4561404	76.9372714	32808	26.42727778	1.6741
2008	348	-0.56	-6.11	-2.08	0	96.21052632	241.9216033	32782	26.05048611	1.17165
2008	349	9.44	-1.67	6.39	0.28	294.477193	251.2587381	32759	25.24579167	2.1757
2008	350	13.89	-1.67	9.61	0.64	459.7824561	70.74098962	32740	24.46156944	3.0326
2008	351	1.11	-2.22	0.19	0.73	70.59649123	68.16776678	32724	24.06430556	2.53495
2008	352	3.33	-0.56	2.26	0	92.91929825	40.82190022	32712	23.88234722	2.15715
2008	353	2.22	-0.56	1.46	3.2	64.64561404	88.91077544	32704	23.77465278	2.14395
2008	354	5.56	-4.44	2.81	0	216	15.4468944	32699	23.73129167	1.5277
2008	355	-2.78	-5.56	-3.54	0.12	46.58245614	137.640712	32698	23.97126389	0.94725
2008	356	1.67	-15.56	-3.07	0	214.0280702	182.3404789	32701	24.85093056	0.2457
2008	357	-7.78	-14.44	-9.61	0	66.78596491	261.2881035	32707	24.54370833	-0.2073
2008	358	1.11	-11.11	-2.25	3.65	179.6561404	149.4164502	32717	24.2445	-0.324
2008	359	9.44	-0.56	6.69	0	276.5824561	44.81274633	32731	24.06461111	-0.01765
2008	360	0	-5.56	-1.53	0.23	99.83157895	173.5758649	32749	23.96336111	0.1106
2008	361	2.78	-4.44	0.79	0.13	145.5578947	183.3182179	32770	23.87004167	0.51555
2008	362	9.44	0	6.85	0.01	266.8421053	127.746539	32794	23.76854167	0.95895
2008	363	12.22	0	8.86	0	369.1719298	142.5615136	32822	23.65077778	1.23625
2008	364	6.67	-1.11	4.53	0	196.8912281	258.5131795	32854	23.51743056	1.1972
2008	365	3.89	-1.11	2.51	0.08	118.4	262.1079996	32889	23.29597222	0.77895
2009	1	1.67	-9.44	-1.39	0	264.1864349	155.0455539	32928	22.95831944	0.1808
2009	2	-1.67	-9.44	-3.81	0	252.0662643	277.2813078	32971	22.87459722	0.38265
2009	3	5.56	-5.56	2.5	0	338.4527851	154.4734834	33017	22.82494444	0.1512
2009	4	1.11	-7.78	-1.33	0	169.1340428	250.4367628	33066	22.73361111	0.1299
2009	5	3.89	-7.22	0.83	0.01	266.6382496	130.8097467	33119	22.63436111	0.66405
2009	6	3.89	-3.33	1.9	0.83	227.4430348	186.7836925	33175	22.61009722	0.36665
2009	7	0	-3.33	-0.92	1.44	50.3711006	35.42534754	33234	22.635125	0.41085
2009	8	2.22	-3.33	0.69	0	165.2672999	35.77024267	33296	22.60545833	0.14615
2009	9	-2.22	-5.56	-3.14	0	139.4944835	142.8110425	33362	22.28498611	-0.14445
2009	10	-2.78	-5.56	-3.54	1.05	49.44759858	211.1762735	33431	22.16441667	-0.04995
2009	11	-0.56	-5.56	-1.93	0	108.3172789	52.56209892	33503	22.16904167	0.0175
2009	12	-3.33	-6.11	-4.1	0	119.1433274	124.0813008	33579	22.21756944	-0.03665
2009	13	-0.56	-6.67	-2.24	0	110.799546	187.169623	33657	22.27730556	-0.16455
2009	14	0.56	-12.78	-3.11	0.18	98.79150683	92.89187267	33738	22.26956944	-0.63385
2009	15	-7.78	-13.33	-9.31	0.07	98.60923509	191.2382177	33822	22.34165278	-0.3984
2009	16	-8.89	-17.22	-11.18	0	94.76454865	195.8472972	33909	22.80881944	-0.85925
2009	17	-13.33	-18.89	-14.86	0.01	68.80729022	272.8107297	33999	22.86666667	-1.0409
2009	18	-6.67	-19.44	-10.18	0.26	44.73166455	213.4915229	34092	22.95034722	-0.49965
2009	19	-3.33	-7.78	-4.56	0	102.9768209	115.1936116	34187	22.91422378	-0.33075
2009	20	-4.44	-12.22	-6.58	0	118.3555004	198.6965145	34285	22.51866667	-0.34955
2009	21	-3.89	-12.78	-6.33	0	155.8506765	153.4316873	34386	22.34101389	-0.504
2009	22	-4.44	-12.78	-6.74	0	150.5775132	254.0363014	34489	22.74522222	-0.3973
2009	23	4.44	-5.56	1.69	0	233.9671771	303.8885966	34595	23.40475	-0.22005
2009	24	10.56	-2.78	6.89	0.004	438.592215	286.1560672	34703	24.16123611	-0.41925
2009	25	-1.11	-12.78	-4.32	0.018	108.7026327	191.2816683	34814	25.50254167	-1.3831
2009	26	-7.22	-12.78	-8.75	0.001	107.2715216	133.0920804	34926	26.16473611	-1.36175
2009	27	-2.78	-10.56	-4.92	0.24	153.6160651	253.7081217	35042	26.295125	-1.05525
2009	28	-2.78	-6.67	-3.85	1.14	67.40931715	137.0974146	35159	26.20680556	-0.79935
2009	29	1.67	-8.33	-1.08	0.004	211.3752309	56.87618346	35278	25.93243056	-0.6729
2009	30	-0.56	-8.33	-2.69	0.089	154.5088648	275.4467797	35400	25.31725	-0.61825
2009	31	0	-11.11	-3.06	0.001	203.5899768	196.1663711	35523	24.93195833	-0.7296
2009	32	-1.11	-11.67	-4.01	0	164.3049002	324.5517125	35649	24.7725	-0.5224
2009	33	9.44	-1.11	6.54	0.06	152.2796808	331.9759895	35776	24.90243056	-0.3474
2009	34	3.89	-4.44	1.6	0.067	147.6905964	70.00790976	35905	24.96494444	-0.45035
2009	35	1.67	-8.89	-1.24	0.029	176.1774139	253.5008048	36036	24.60370833	-0.575
2009	36	-3.89	-16.11	-7.25	0	147.1429927	217.5034422	36169	24.469375	-1.24475
2009	37	-7.22	-15.56	-9.51	0	139.7014676	362.013222	36303	24.41948611	-1.3302
2009	38	3.33	-8.33	0.12	0	237.8874798	360.4623765	36440	24.14929167	-0.50685
2009	39	12.78	-2.78	8.5	0	419.5200398	217.6037947	36577	23.93713889	-0.3338
2009	40	10.56	-2.22	7.04	0	386.0580639	216.7615209	36716	23.90493056	-0.21435
2009	41	7.22	-2.22	4.62	0.158	200.2813618	341.0010853	36857	24.79354167	0.1734
2009	42	10	2.78	8.01	0.258	279.2561642	85.07354253	36999	25.62915278	1.6678
2009	43	16.67	5	13.46	0	600.4362025	260.6041515	37143	25.515625	1.62715
2009	44	6.11	1.11	4.74	0.003	318.3311801	86.93394481	37287	25.28520833	0.91185
2009	45	2.22	-0.56	1.46	0.112	167.2721316	72.22969038	37433	24.85088889	0.79895
2009	46	0.56	-5	-0.97	0	227.6195056	123.0332881	37581	24.55572222	0.84065
2009	47	2.22	-5.56	0.08	0	272.1943102	351.0557396	37729	24.343375	0.5453
2009	48	0.56	-7.78	-1.74	0	236.7528368	228.1077114	37879	24.63025	0.394
2009	49	3.33	-7.78	0.28	0.63	161.2265878	385.4023245	38029	25.91747222	0.2861
2009	50	4.44	-1.67	2.76	0.134	194.6061353	38.35342186	38181	26.35892754	0.14865
2009	51	2.22	-8.89	-0.83	0.007	251.1921475	190.9096885	38334	26.1915	-0.23105
2009	52	-3.89	-8.89	-5.26	0	223.1231013	225.5153169	38487	25.56883333	-0.2588
2009	53	3.33	-7.22	0.43	0.102	260.7307378	391.3288132	38642	25.34629167	-0.16475
2009	54	0	-6.67	-1.83	0.041	229.8927661	202.9565957	38798	25.15543056	-0.39515
2009	55	-3.89	-11.11	-5.87	0	188.3726894	209.4387226	38954	24.98768056	-0.6862
2009	56	-0.56	-11.11	-3.46	0	249.314548	429.0285597	39111	24.87025	-0.2004
2009	57	8.33	-7.22	4.06	0.015	428.006074	414.2311747	39269	24.80716667	0.8801
2009	58	12.78	2.78	10.03	0.745	279.7922266	197.8326063	39428	24.94691667	1.52285
2009	59	12.78	-3.89	8.19	0	487.0341169	86.0709829	39587	25.60075	1.4255
2009	60	1.67	-4.44	-0.01	0	345.0601914	354.4487634	39747	25.33595833	1.31355
2009	61	3.89	-8.33	0.53	0	354.7241505	289.1103315	39907	25.15443056	0.47695
2009	62	-5.56	-13.89	-7.85	0	201.4583111	340.3241739	40068	24.96319444	-0.0263
2009	63	-2.22	-13.89	-5.43	0.002	249.8397379	454.3288839	40230	24.80391667	-0.23515
2009	64	2.78	-11.11	-1.04	0.007	353.4684994	460.430506	40392	24.67997222	0.58505
2009	65	11.67	-7.22	6.47	0	543.6752737	439.2025151	40555	24.57881944	3.05665
2009	66	20	8.33	16.79	0.005	744.2677937	296.3650474	40718	24.48568056	5.8875
2009	67	21.67	12.78	19.22	1.255	457.0879083	174.0303801	40882	24.39422222	7.2846
2009	68	15	6.11	12.56	0.094	356.2603444	44.59771963	41046	24.841125	5.77055
2009	69	10	1.67	7.71	0.069	242.4558126	118.2215482	41210	25.49616667	4.1149
2009	70	7.22	2.22	5.85	0.024	404.9297895	78.0172568	41375	25.62530556	6.0171
2009	71	17.22	-2.78	11.72	0	795.2153365	390.1841358	41540	25.69306944	3.4573
2009	72	2.78	-5	0.64	0	319.2155879	317.3720177	41705	25.56934722	3.59265
2009	73	6.67	-5	3.46	0	326.2932209	466.8058276	41870	25.20594444	4.2946
2009	74	11.11	-1.11	7.75	0	333.8742675	389.5550718	42036	25.33745833	6.2411
2009	75	13.89	2.22	10.68	0.775	274.9745386	392.044595	42202	25.46945833	5.90865
2009	76	11.67	3.33	9.38	0.004	267.5401823	124.9391758	42368	25.98016667	6.5087
2009	77	12.78	2.78	10.03	0	448.9978894	256.0915503	42534	26.84005556	7.54365
2009	78	22.78	3.89	17.58	0.004	1053.709672	434.3761973	42701	26.87356944	7.93725
2009	79	12.78	-2.22	8.65	0.004	629.3741589	321.2826183	42867	26.94641958	4.8386
2009	80	6.67	-6.11	3.15	0	449.3988361	337.8049172	43033	26.367	3.7937
2009	81	8.33	-6.11	4.36	0	434.1245019	406.4468056	43200	25.49895833	4.4981
2009	82	12.22	-3.33	7.94	0	772.7372812	355.0930683	43366	25.35193056	4.6879
2009	83	7.78	-6.67	3.81	0.003	602.8603107	528.8867755	43533	25.182875	4.2393
2009	84	8.89	-6.11	4.76	0.002	618.5631465	512.8243438	43699	25.01748611	4.01
2009	85	10	2.22	7.86	1.215	109.8442733	258.5353699	43865	24.90226389	4.5426
2009	86	5.56	1.67	4.49	0.041	272.2866165	45.54219658	44032	24.80783333	6.54485
2009	87	14.44	2.78	11.24	0.027	168.8633258	400.4028463	44198	24.73494444	7.2782
2009	88	12.22	7.22	10.85	0.698	227.6366565	89.91249465	44363	24.64093056	7.4691
2009	89	10.56	1.11	7.96	0.059	343.3438813	145.1713041	44529	24.60059722	5.2706
2009	90	3.89	0	2.82	0	353.6276041	159.5307081	44695	24.52361111	7.061
2009	91	16.11	0.56	11.83	0.718	256.8713881	507.5134195	44860	24.56263889	6.59755
2009	92	8.89	6.11	8.13	0.026	314.3319836	105.789628	45025	25.23247222	9.82595
2009	93	18.89	6.67	15.53	1.816	278.580352	461.6348971	45190	25.16151389	10.06715
2009	94	15.56	3.33	12.19	0	640.2511348	79.33589099	45354	25.73193056	8.01605
2009	95	8.89	2.22	7.06	0	645.7900798	374.2813173	45518	25.726625	8.8121
2009	96	18.89	2.78	14.46	0.639	490.0568742	525.2196537	45681	25.86747222	8.8786
2009	97	12.22	-1.11	8.56	0.01	442.7006644	176.3503981	45845	27.38286111	5.34605
2009	98	3.89	-0.56	2.67	0.002	422.2031368	243.2642859	46007	27.30484722	5.86485
2009	99	10	-0.56	7.1	0	604.6907822	351.3453616	46169	26.91927778	6.63765
2009	100	15	1.11	11.18	0.185	399.0540823	542.5718849	46331	26.27658333	6.42925
2009	101	9.44	3.89	7.92	0.204	503.8963151	102.5447389	46492	25.25734722	8.3508
2009	102	12.78	-1.11	8.96	0	778.1438675	444.5026901	46653	24.74291667	6.8843
2009	103	10	-2.78	6.49	0.484	547.4747602	572.1304552	46813	24.545375	6.23085
2009	104	12.78	-1.11	8.96	0.798	119.0061886	368.7307332	46972	25.00376389	6.35395
2009	105	7.78	5	7.01	1.14	116.3689887	46.34452908	47131	25.41277778	6.71545
2009	106	7.78	-0.56	5.49	0.002	416.5154791	127.4696864	47289	25.40826389	8.263
2009	107	18.33	1.11	13.6	0	1103.46758	564.2099018	47446	25.78516667	9.434
2009	108	21.11	4.44	16.53	0	1361.317267	569.9938238	47602	25.14566667	10.73925
2009	109	23.33	10.56	19.82	0.033	1347.874024	541.9207463	47758	24.83104167	11.48475
2009	110	20	5	15.88	1.229	348.6805386	298.7421523	47912	24.58131944	8.53885
2009	111	7.78	4.44	6.86	0.205	175.0739881	73.9256231	48066	24.36823611	9.64815
2009	112	17.22	5	13.86	0.023	482.297071	306.7959311	48219	24.13681944	8.0201
2009	113	11.11	2.22	8.67	0.144	464.8843314	330.8135415	48370	23.90815278	8.2378
2009	114	12.78	3.33	10.18	0.03	606.7031419	394.161765	48521	23.69925	10.07755
2009	115	23.89	5	18.69	0	1212.598359	434.9593392	48671	23.51225	13.44845
2009	116	30	13.89	25.57	0	2066.634528	432.1242549	48819	23.34695833	15.4199
2009	117	31.11	15	26.68	0	2221.143246	546.1681371	48966	23.39104167	16.6924
2009	118	32.22	16.67	27.94	0	1939.849546	541.3218154	49112	23.44823611	16.61495
2009	119	29.44	6.67	23.18	0.002	1225.275917	493.4652334	49257	24.66690278	14.2795
2009	120	19.44	7.22	16.08	0.14	512.5185758	402.8471893	49401	24.381125	12.23525
2009	121	17.22	11.11	15.54	0.847	329.7594936	118.7372182	49543	24.08947222	13.7127
2009	122	21.67	11.11	18.76	0.069	726.5510594	233.1827788	49683	23.79601389	13.7158
2009	123	17.78	8.33	15.18	0.265	280.056739	326.1133011	49823	23.61197222	11.42315
2009	124	14.44	8.33	12.76	1.5	146.8725817	177.5458567	49960	23.94077778	11.3899
2009	125	11.11	9.44	10.65	0.855	196.1258044	78.52561083	50096	24.57454167	11.3632
2009	126	13.33	9.44	12.26	1.376	211.5938044	127.9462881	50231	24.78765278	12.7065
2009	127	18.89	11.11	16.75	0.022	522.6763283	230.7450906	50363	24.85258741	13.96055
2009	128	21.11	11.11	18.36	0.236	366.700773	325.696267	50495	24.54002778	13.47535
2009	129	22.22	12.78	19.62	0.009	757.6694342	263.7159845	50624	24.27259722	14.87645
2009	130	24.44	8.89	20.17	0	1085.621956	307.7087545	50751	25.10338889	12.8034
2009	131	15.56	6.11	12.96	0.034	368.7424103	261.8315742	50877	24.93247222	10.9141
2009	132	15.56	3.89	12.35	0	620.5911312	217.8732941	51000	24.85559722	11.06935
2009	133	16.67	4.44	13.31	0.031	702.4807696	483.4381675	51122	25.50570833	11.7018
2009	134	21.67	7.22	17.69	1.619	282.4456908	479.5092992	51241	25.23295833	12.9502
2009	135	20	11.11	17.56	0	606.2392927	242.6118813	51358	24.78220833	14.9736
2009	136	24.44	11.11	20.78	1.91	472.1160068	503.6610067	51473	24.35973611	15.93785
2009	137	26.11	7.78	21.07	0.002	1279.800578	327.6518823	51586	24.03536111	13.7441
2009	138	15	3.89	11.94	0	799.4811004	499.9752597	51697	24.20727778	11.4096
2009	139	15.56	2.78	12.04	0.002	674.835982	604.3722614	51805	25.16579167	11.60155
2009	140	22.22	5.56	17.64	0	1029.752062	598.2218455	51910	24.965625	13.29635
2009	141	28.33	11.11	23.6	0	1433.767087	585.7771946	52014	27.45805556	14.47485
2009	142	29.44	13.89	25.17	0	1243.95323	597.8737192	52114	28.18690278	15.2324
2009	143	28.89	15.56	25.22	0.098	798.0652995	447.9868996	52212	26.92901389	16.14895
2009	144	27.78	15.56	24.42	0.436	616.3887921	352.2021679	52308	25.9555	16.5265
2009	145	29.44	16.11	25.78	0	1196.570604	385.4783015	52400	24.56209722	16.9892
2009	146	26.11	12.22	22.29	0.592	513.7200429	532.2553629	52490	24.03668571	13.59015
2009	147	12.78	9.44	11.86	0.188	127.795897	92.49831675	52577	23.63124894	12.8956
2009	148	16.67	10.56	14.99	1.821	156.1560378	162.9570088	52662	23.37233507	14.9759
2009	149	22.78	16.67	21.1	0.003	345.4430767	231.3654703	52743	23.17150588	15.76385
2009	150	20	12.78	18.01	0.005	761.5117931	184.9645217	52821	23.00741648	15.0694
2009	151	21.67	10	18.46	0.001	917.7313413	544.0036298	52896	22.86868087	14.15235
2009	152	21.11	5	16.68	0.003	748.3944377	546.4939115	52969	22.74850261	12.93535
2009	153	22.78	8.33	18.81	0.562	391.0654887	477.6434632	53038	22.64249788	15.14565
2009	154	23.89	15.56	21.6	1.448	162.8550763	323.5355818	53103	22.46247059	14.49125
2009	155	16.67	11.11	15.14	0.002	320.1857322	54.65613362	53166	22.32340278	13.90945
2009	156	17.78	11.11	15.94	0.664	142.9780977	217.9634382	53225	21.96536111	13.53525
2009	157	14.44	12.22	13.83	0.002	457.0342452	73.79384771	53281	21.58143056	15.60545
2009	158	24.44	12.78	21.24	0	781.4197036	556.5243934	53334	21.16548611	16.229
2009	159	27.22	15.56	24.01	1.188	665.3370689	531.5557575	53383	20.77768056	17.18125
2009	160	27.78	18.33	25.18	0.802	607.6812536	390.751633	53429	20.42401389	18.16575
2009	161	28.33	16.67	25.12	0.057	534.0691892	371.963008	53471	20.10056944	17.57
2009	162	25	17.78	23.01	1.03	246.4732931	323.1155111	53510	19.92658333	17.133
2009	163	22.22	17.78	21	0.405	384.3381698	157.7462929	53546	20.24559722	17.67305
2009	164	23.89	16.11	21.75	0.008	696.7668218	266.0981391	53577	20.03975	17.7293
2009	165	25	11.11	21.18	0.015	901.0650168	364.0599933	53606	19.76	16.94635
2009	166	25	12.78	21.64	0	948.8202684	561.4360619	53630	19.45181944	16.6397
2009	167	26.67	15	23.46	0	568.0934847	550.5218356	53651	19.12358333	16.0526
2009	168	22.22	15.56	20.39	2.058	280.2558962	188	53669	18.885625	15.25145
2009	169	16.67	13.89	15.9	0.269	268.2314446	135.68088	53682	18.96141667	15.93805
2009	170	21.67	15.56	19.99	0.159	551.8582417	214.8344291	53693	18.90193056	16.9544
2009	171	24.44	16.11	22.15	3.874	322.3490787	340.8653606	53699	18.7945	17.6274
2009	172	24.44	16.67	22.31	0.251	646.0100973	146.2408476	53702	18.65244444	17.59335
2009	173	23.89	15.56	21.6	0	828.393316	276.2871455	53701	18.53281944	18.3034
2009	174	27.22	15.56	24.01	0	1047.297317	400.843899	53696	18.58273611	18.4716
2009	175	27.22	14.44	23.71	0	1122.611537	558.2149084	53688	18.86018056	18.63835
2009	176	29.44	16.11	25.78	0.001	996.8158224	575.9127916	53676	18.95408333	18.90705
2009	177	30.56	18.89	27.35	0.159	778.0274218	507.4936546	53661	19.04883333	19.2404532
2009	178	26.67	15.56	23.61	0	921.1815165	403.7957905	53641	19.08383333	18.76792165
2009	179	26.67	15.56	23.61	0.429	359.5379371	491.8327086	53619	18.97394521	17.5410854
2009	180	21.11	13.89	19.12	0.045	571.5133907	116.2824116	53592	18.91579191	17.88396085
2009	181	26.11	15.56	23.21	1.334	317.4763943	487.6221388	53562	19.05755556	17.8429776
2009	182	22.78	13.89	20.33	0.776	384.479247	309.9693998	53529	19.70548611	17.58398475
2009	183	24.44	15	21.85	0.26	292.929466	338.1314988	53491	20.72518056	17.6624384
2009	184	22.22	15.56	20.39	0	508.6422429	242.0939926	53451	20.48156944	17.59755
2009	185	22.22	15	20.24	0	843.0129499	313.2517086	53407	20.28152778	17.7000743
2009	186	23.33	11.11	19.97	0	777.5442578	469.425514	53359	19.92077778	17.03026193
2009	187	23.89	12.22	20.68	0	853.5576772	547.6865574	53308	19.637375	16.87731868
2009	188	27.22	13.89	23.56	0	1176.476636	523.280993	53254	19.35341667	17.24387566
2009	189	26.11	11.67	22.14	0	808.670287	512.0840101	53196	19.07976389	16.31799692
2009	190	22.78	12.78	20.03	0	719.4379253	403.718453	53135	18.82525	16.63737855
2009	191	26.11	13.89	22.75	0	704.8211986	450.6709691	53071	18.64818056	17.0398929
2009	192	26.11	16.67	23.51	1.4	447.6598914	412.1833069	53004	18.47959722	17.67706404
2009	193	25.56	17.22	23.26	0	901.6685182	259.7328699	52933	18.29720833	18.25643243
2009	194	25	14.44	22.1	0	1029.287788	547.7308551	52860	18.23	17.15420613
2009	195	24.44	11.11	20.78	0	973.6450359	547.9027907	52783	18.30306944	16.22294918
2009	196	25	11.11	21.18	0.009	832.3341124	585.0799195	52703	18.34758333	16.45055554
2009	197	27.78	13.33	23.81	0	986.6266601	537.9431965	52620	18.29091667	19.02363452
2009	198	30	18.33	26.79	1.307	450.5324709	469.2875036	52535	18.14072222	17.48684621
2009	199	22.78	13.89	20.33	0.022	540.2532892	156.5801205	52446	17.92476389	17.00084109
2009	200	20.56	13.33	18.57	0.023	532.8747459	291.0120141	52355	17.72152778	16.80733206
2009	201	23.89	14.44	21.29	0.016	675.0930108	439.14927	52261	17.66581944	16.99395202
2009	202	26.11	15.56	23.21	0.217	693.6484257	380.9887854	52164	17.58731944	18.04754103
2009	203	25	15.56	22.4	0.694	372.1661505	389.7421492	52065	17.49243056	17.82369202
2009	204	25	16.67	22.71	2.02	320.5875517	253.5307815	51963	17.46219444	18.83719471
2009	205	25.56	17.22	23.26	0.165	532.685326	273.2542134	51858	17.33647222	18.72012958
2009	206	26.11	15	23.06	0.655	481.6771529	418.1852331	51751	17.09370833	18.1838629
2009	207	27.78	16.67	24.72	0.022	476.1631711	384.4510476	51642	16.84784722	18.85250537
2009	208	26.11	18.33	23.97	0.001	732.9878967	324.7343295	51530	16.55190278	18.99845702
2009	209	27.78	17.22	24.88	0	788.7211924	458.2545462	51417	16.36944444	19.02823297
2009	210	28.89	18.33	25.99	1.24	256.614042	470.5817154	51300	16.31891667	18.6788
2009	211	22.78	18.33	21.56	0	508.5388685	163.5237584	51182	16.75194444	19.7427
2009	212	27.78	19.44	25.49	1.467	246.626154	365.4246602	51062	17.29829167	19.42985
2009	213	22.22	16.67	20.69	0.003	528.009103	122.565441	50939	17.41575	19.82405
2009	214	27.22	17.22	24.47	0.12	503.28073	506.6144249	50815	17.33236111	19.6234
2009	215	25.56	14.44	22.5	0.001	667.5599216	272.2438644	50688	17.12845833	18.82585
2009	216	25.56	15.56	22.81	0	624.4665166	507.4447785	50560	16.86631944	18.9156
2009	217	28.33	16.67	25.12	0	756.4169314	494.616855	50430	16.58588889	19.26415
2009	218	26.11	12.78	22.44	0.004	846.0942866	320.9862619	50298	16.31605556	17.57985
2009	219	25	12.22	21.49	0	668.5008427	428.4242485	50164	16.07416667	16.92305
2009	220	24.44	13.89	21.54	0.277	634.6702583	421.8924624	50029	15.94797222	17.7314
2009	221	26.11	16.11	23.36	0.177	442.6475989	406.1789064	49892	15.90973611	19.59875
2009	222	29.44	20	26.85	0.418	806.3058002	245.3757889	49754	15.826375	21.05025
2009	223	32.22	20	28.86	0.038	614.5217081	433.2942315	49614	15.66756944	20.4172
2009	224	27.78	18.33	25.18	1.84	449.6914643	273.9751375	49472	15.59231944	19.65965
2009	225	26.67	16.67	23.92	0	530.6079843	277.6136834	49330	16.17779167	19.4836
2009	226	26.67	17.78	24.22	0	626.9497425	466.979425	49186	16.51394444	19.73465
2009	227	28.89	17.78	25.83	0.002	794.0750932	471.8079119	49040	16.51822222	20.2991
2009	228	30.56	19.44	27.5	0	901.5865104	517.4930666	48894	16.43529167	20.1106
2009	229	31.11	20	28.06	0.002	1105.731535	512.0612768	48746	16.28244444	20.62407613
2009	230	32.78	20.56	29.42	0.451	611.56991	520.5570508	48597	16.17006944	20.54611811
2009	231	30.56	20.56	27.81	0.002	676.9374703	353.0740618	48446	16.01626389	21.0753
2009	232	29.44	20	26.85	0	749.152435	335.0939435	48295	15.73793056	21.13647586
2009	233	29.44	20.56	27	0.488	492.655685	360.8208255	48143	15.47893056	21.29540684
2009	234	26.67	18.89	24.53	0	559.8637232	286.8407377	47990	15.31797222	20.72110562
2009	235	26.67	17.78	24.22	0	846.3101499	300.8905427	47836	15.25783333	20.14366942
2009	236	25.56	14.44	22.5	0	576.5525923	432.6559426	47681	15.22544444	18.72811427
2009	237	25.56	14.44	22.5	0	667.7699726	383.9634929	47525	15.22093056	18.69208006
2009	238	27.22	16.11	24.17	0	897.3468059	508.4194604	47368	15.14070833	19.06445444
2009	239	28.89	17.22	25.68	0.027	534.4074612	462.4241898	47210	15.03197222	19.28960558
2009	240	19.44	16.67	18.68	1.252	219.3969411	128.512093	47052	15.16166667	18.53889205
2009	241	20	16.67	19.08	1.77	330.555097	72.7311539	46893	15.59897222	19.21579477
2009	242	26.11	14.44	22.9	0	761.1388359	320.4080541	46734	16.148875	17.59316645
2009	243	22.22	11.11	19.17	0.001	540.8998917	480.1938247	46573	16.39395833	15.94788898
2009	244	18.89	7.78	15.83	0	474.5543285	398.0785771	46413	16.53055556	14.87805
2009	245	20.56	8.33	17.19	0	529.277754	538.6507319	46251	16.64586111	14.7677
2009	246	23.33	10	19.67	0	586.9153305	521.0623576	46089	17.08184722	15.1667
2009	247	23.89	10.56	20.22	0	627.404906	512.5118558	45927	17.22826389	15.92325
2009	248	25	12.22	21.49	0	667.4029684	508.0795167	45764	17.27718056	16.50525
2009	249	25.56	12.78	22.04	0	723.5662468	474.4047149	45600	17.287875	16.49555
2009	250	25	13.89	21.94	0.01	385.7817956	454.5401105	45437	17.27765278	16.8521
2009	251	20	17.22	19.24	0.004	409.4359562	150.4898834	45272	17.25980556	17.21795
2009	252	22.22	16.11	20.54	0.006	474.4212481	208.9722001	45108	17.29027778	17.2582
2009	253	22.78	15	20.64	0.008	708.5729684	236.9511826	44943	17.68265278	16.5751
2009	254	20	12.78	18.01	2.075	218.3804631	440.6224485	44778	17.81240278	14.58835
2009	255	15	12.22	14.24	0.053	192.5441047	62.22258086	44613	17.84802778	15.6608
2009	256	19.44	13.89	17.92	0.01	587.8569736	106.9569825	44447	17.87545833	16.899
2009	257	24.44	15	21.85	0.005	598.2023368	477.8696958	44281	17.88655556	17.25015
2009	258	23.89	13.89	21.14	0	456.242422	328.4017228	44115	18.12319444	16.7465
2009	259	24.44	11.67	20.93	0	743.9274831	297.3866755	43949	19.85373611	16.145
2009	260	19.44	11.67	17.31	0.013	315.1932069	387.5532056	43783	20.38488889	15.28495
2009	261	16.11	13.89	15.5	0.014	481.6589997	79.71882523	43617	21.33940278	16.2616
2009	262	23.33	10	19.67	0.016	668.9773209	431.1204143	43450	21.39281119	14.97505
2009	263	20	5.56	16.03	0	394.0091204	511.4600545	43284	21.54133333	14.0645
2009	264	23.33	6.11	18.6	0	470.319669	419.366955	43117	21.64022222	15.6135
2009	265	23.89	14.44	21.29	0.077	413.0755619	425.1073549	42951	21.66463889	16.7677
2009	266	23.33	18.33	21.96	0.461	323.0048201	146.6952599	42784	21.80176389	18.005
2009	267	26.11	17.78	23.82	0.001	550.8505766	287.909733	42618	28.93836111	18.18825
2009	268	22.78	13.33	20.18	0.001	766.0699265	209.8487704	42452	29.19626389	16.57845
2009	269	20	12.22	17.86	3.541	393.1857879	423.0745637	42286	26.56623611	14.1453
2009	270	14.44	11.67	13.68	1.124	97.59836475	66.51524217	42120	25.96515278	14.3687
2009	271	16.67	12.22	15.44	0.783	392.4936873	144.1699004	41954	25.98152778	13.8875
2009	272	20	11.11	17.56	0.005	614.0463142	258.0364698	41788	25.23822222	13.03765
2009	273	13.89	10.56	12.97	0.001	474.1497003	80.00398818	41623	24.88148611	12.8359
2009	274	13.33	6.67	11.5	0	425.1628331	226.9404458	41458	24.62211111	11.4835
2009	275	12.78	3.89	10.33	0.968	132.6601074	243.7642458	41293	24.447375	10.7612
2009	276	15	5	12.25	0.041	279.36355	215.6805174	41129	24.31393056	12.99595
2009	277	18.89	7.78	15.83	0	395.4028318	364.3781369	40964	24.20629167	12.0185
2009	278	15.56	7.78	13.42	0	431.4231722	216.5545207	40801	24.10380556	11.7684
2009	279	15.56	4.44	12.5	0.002	370.5361453	299.5252848	40637	24.00968056	11.32255
2009	280	17.78	5	14.26	0.275	564.702324	375.2800316	40474	23.951875	12.43275
2009	281	13.33	7.78	11.81	0.002	466.8655743	216.561148	40312	23.87145833	12.14955
2009	282	18.33	8.33	15.58	1.539	171.0742548	346.520797	40150	23.82920833	12.92075
2009	283	17.78	11.67	16.1	0.051	390.5188521	98.41761484	39989	23.82745833	13.10905
2009	284	14.44	5	11.85	0	373.7990604	209.3787285	39828	23.79331944	10.3938
2009	285	12.78	3.89	10.33	0	340.3996733	336.8411526	39667	23.71481944	9.37385
2009	286	9.44	3.89	7.92	0.014	283.6007623	134.8980966	39508	23.66390278	10.0573
2009	287	13.33	0	9.67	0	252.7312396	155.3075809	39349	23.67195833	8.38545
2009	288	7.22	0.56	5.39	2.875	65.32204503	143.7659156	39191	23.68622222	7.2423
2009	289	3.89	-0.56	2.67	1.015	39.74306619	41.64829759	39033	23.58288889	5.8772
2009	290	1.67	0	1.21	0.716	44.46893486	105.1623624	38876	23.55611111	6.36915
2009	291	3.89	0	2.82	0.051	193.5736985	86.93755165	38720	23.48833333	7.28405
2009	292	10	-1.11	6.94	0	279.1027575	257.0438221	38565	23.43272222	6.8181
2009	293	12.78	0	9.26	0	396.3782907	402.2132462	38411	23.59397222	8.51305
2009	294	19.44	6.67	15.93	0	513.2498888	342.0583407	38258	24.41333333	9.61805
2009	295	21.11	7.78	17.44	0	743.1655047	279.9480397	38106	24.30095833	10.5356
2009	296	21.67	8.33	18	1.851	421.5513789	314.7272296	37955	24.23477778	11.2232
2009	297	17.22	11.11	15.54	6.417	347.2655167	117.1349064	37804	24.17016667	12.3788
2009	298	18.33	6.67	15.12	0	724.291248	136.2429425	37655	24.62376389	10.7602
2009	299	15	2.78	11.64	0	419.3229011	365.9718719	37507	24.63248611	9.57615
2009	300	15.56	3.33	12.19	0.546	201.9614038	343.4797248	37361	24.61	9.81235
2009	301	13.33	7.78	11.81	0.801	131.5099396	136.5894397	37215	25.03509722	11.2385
2009	302	15	11.11	13.93	0	246.9586021	83.21016428	37071	24.79573611	11.75305
2009	303	13.33	10	12.42	0.014	246.492101	79.03531196	36928	24.60281944	11.49
2009	304	14.44	11.11	13.53	0.11	391.4013184	58.89743659	36787	24.50386111	11.76355
2009	305	16.67	5.56	13.61	0	645.7503674	58.59573771	36647	24.41997222	10.3931
2009	306	11.67	-0.56	8.31	0	308.9746219	300.2259717	36509	24.45676389	8.59645
2009	307	12.78	0	9.26	0.053	442.227101	341.7961344	36372	25.38454167	8.43725
2009	308	12.22	-1.11	8.56	0.003	384.6979668	277.2042388	36237	24.91545833	7.15355
2009	309	7.78	-1.11	5.33	0.076	213.3716827	194.7745617	36103	24.61583333	6.94155
2009	310	7.22	0.56	5.39	0	391.6988879	113.8939145	35971	24.53643056	6.2898
2009	311	7.78	-2.22	5.03	0	335.0895566	336.1670712	35841	24.40873611	5.9685
2009	312	13.33	-2.22	9.06	0.001	394.3304765	306.7477949	35713	24.42369444	8.16835
2009	313	21.11	5.56	16.83	0	457.0171514	315.5840499	35586	24.7785	8.77955
2009	314	19.44	5.56	15.62	0	543.8915295	189.9116237	35462	25.12593056	9.5795
2009	315	14.44	5.56	12	0.015	742.7692553	138.9815218	35339	25.18277778	8.9022
2009	316	10.56	2.22	8.26	0	635.896958	173.1909481	35219	24.84227778	8.04235
2009	317	10	2.78	8.01	0	609.4263692	186.6418803	35100	24.89763889	9.165
2009	318	15.56	5	12.65	0.004	362.9603322	271.4951978	34984	25.97006944	10.6198
2009	319	14.44	4.44	11.69	0.001	298.1035457	133.4935475	34870	26.73015278	10.4167
2009	320	19.44	5.56	15.62	0	734.7430277	276.6466239	34759	26.90318056	10.21315
2009	321	12.78	5.56	10.79	0	794.3924701	289.2625473	34649	26.53708911	9.13115
2009	322	8.89	2.78	7.21	0	365.799792	100.9619594	34542	24.6700658	8.0337
2009	323	10	4.44	8.47	1.256	110.5722992	173.5931529	34438	24.52866385	9.20195
2009	324	11.11	6.11	9.74	0	439.1936874	54.9111137	34336	24.42236198	9.10045
2009	325	10	5	8.62	0	315.3315028	191.1826679	34237	24.32094323	8.61755
2009	326	10.56	5	9.03	0	191.8939447	116.415993	34140	24.23156535	7.42215
2009	327	8.33	3.89	7.11	0.257	215.7106532	80.56611643	34046	24.28321378	7.6927
2009	328	9.44	4.44	8.07	0.473	79.92162581	92.74624492	33954	24.22058875	8.65685
2009	329	9.44	6.67	8.68	0.026	100.914755	76.33266403	33866	24.54174813	8.86125
2009	330	10.56	2.22	8.26	0.686	98.29357923	92.60408526	33780	26.81640792	8.0328
2009	331	10	2.22	7.86	0.048	323.7376413	140.3104727	33697	25.4909525	6.6468
2009	332	5.56	1.67	4.49	0.009	219.0044832	100.8761378	33618	25.03064493	5.5405
2009	333	5	0	3.62	0.023	273.8465278	97.60299335	33541	24.77277837	5.6978
2009	334	16.11	0.56	11.83	0.104	443.3355542	253.7934981	33467	24.40433198	7.27225
2009	335	11.11	-0.56	7.9	0	346.3394737	63.40611432	33397	24.21764635	5.013
2009	336	6.11	-2.22	3.82	1.114	74.259888	119.4484083	33329	24.22184722	4.32405
2009	337	12.78	-1.67	8.81	0.442	269.6985342	68.63177514	33265	24.04066667	6.84645
2009	338	11.67	2.78	9.22	0.002	404.3970804	58.21304662	33204	23.94266667	5.4088
2009	339	5	-1.11	3.32	0.467	103.075495	140.8872262	33146	23.84155556	3.7398
2009	340	0.56	-3.89	-0.67	0.001	169.5391919	39.108425	33092	23.75452778	3.2568
2009	341	0.56	-5.56	-1.12	0.004	114.5965167	283.8162586	33041	23.67201389	2.5602
2009	342	1.11	-5.56	-0.72	0.921	191.6584817	88.95050465	32993	23.60104514	3.20735
2009	343	3.33	-1.11	2.11	2.348	93.08141013	218.1263771	32949	23.56586806	2.6833
2009	344	6.11	-3.33	3.51	0.001	362.2057389	154.7091677	32909	23.53361111	2.08905
2009	345	-2.22	-10	-4.36	0	241.5653984	166.6408798	32872	23.30675694	0.9998
2009	346	-2.78	-9.44	-4.61	0	243.8525446	204.1721177	32838	23.42774306	0.8279
2009	347	2.22	-5.56	0.08	1.665	137.7923547	275.3377835	32808	23.36289931	1.11355
2009	348	5	-0.56	3.47	0	126.5436996	51.09499115	32782	23.29640625	1.7291
2009	349	7.78	2.78	6.4	0.152	169.7839001	131.1490583	32759	23.23950694	2.2182
2009	350	7.78	-3.89	4.57	0.005	351.5186021	52.82345754	32740	23.27990278	1.33815
2009	351	-1.11	-7.22	-2.79	0.001	194.6349855	233.9156582	32724	23.27556944	0.6623
2009	352	-1.67	-6.67	-3.04	0	190.6060358	212.0011005	32712	24.45651389	0.9781041
2009	353	0	-6.67	-1.83	0.775	69.38089985	178.18591	32704	25.66143056	1.0724188
2009	354	-4.44	-7.22	-5.21	0.005	141.3702265	62.00299703	32699	25.37326389	1.34780495
2009	355	0	-6.11	-1.68	0.002	163.3830332	250.2578751	32698	25.24716667	1.50747995
2009	356	0.56	-3.33	-0.51	0.005	181.8306143	200.249656	32701	24.8815	1.6061591
2009	357	1.11	-9.44	-1.79	0	198.3102232	114.6239031	32707	24.00818056	0.74700115
2009	358	-1.67	-9.44	-3.81	0	130.5850733	276.4927713	32717	23.85885069	0.59158415
2009	359	0	-5.56	-1.53	0.784	66.77951248	271.6298005	32731	25.04114583	0.84365775
2009	360	6.11	-1.67	3.97	1.86	54.83178188	43.00454976	32749	29.99435764	1.9840566
2009	361	6.67	-2.78	4.07	0.001	160.2968077	50.7335978	32770	29.47365385	2.70163605
2009	362	5	-2.78	2.86	0.024	256.0515326	196.5332378	32794	26.42177083	1.56155655
2009	363	-2.22	-7.78	-3.75	0.037	202.1849359	131.618122	32822	25.92565972	0.29480155
2009	364	-4.44	-9.44	-5.82	0	146.7228171	227.6367566	32854	25.10114583	0.09637875
2009	365	-1.67	-9.44	-3.81	0.433	66.96507975	174.9951656	32889	24.35661458	0.20431905
2010	1	0	-3.89	-1.07	0.022	111.5198336	85.07561953	32928	24.01680556	0.42485
2010	2	2.78	-7.78	-0.12	0.073	216.0043044	110.3866428	32971	23.81265625	0.22495
2010	3	-6.67	-11.11	-7.89	0.005	118.5879497	178.9096526	33017	23.65310764	0.0677
2010	4	-6.11	-10.56	-7.33	0.005	120.014054	82.91417166	33066	23.52348958	-0.0272
2010	5	-3.89	-7.78	-4.96	0.01	132.4565973	107.471542	33119	23.48123264	-0.0654
2010	6	-2.78	-7.78	-4.15	0.019	121.4258647	86.79933685	33175	23.44675347	-0.02655
2010	7	-1.11	-3.89	-1.87	0.079	165.2800878	66.69669615	33234	23.42326389	0.00825
2010	8	-1.67	-6.11	-2.89	0.058	125.2094245	84.95921432	33296	23.39015625	0.0258
2010	9	-4.44	-8.89	-5.67	0.005	176.6695034	209.6644086	33362	23.35638889	-0.1322
2010	10	-2.78	-13.33	-5.68	0	146.0890171	292.5369268	33431	23.33416667	-0.2808
2010	11	-4.44	-13.33	-6.89	0.016	127.458138	261.7366803	33503	23.33210069	-0.24485
2010	12	-2.22	-9.44	-4.21	0.001	147.7534395	156.5544537	33579	23.33427083	-0.4136
2010	13	-2.22	-6.67	-3.44	0	169.3752225	206.6843747	33657	23.36502778	-0.30005
2010	14	0	-7.78	-2.14	0	186.0429463	176.3264865	33738	23.380125	-0.4601
2010	15	7.22	-7.22	3.25	0	245.8080478	288.1660458	33822	23.37794444	-0.051
2010	16	5.56	2.22	4.64	0	241.7271257	59.95647173	33909	23.38291667	0.33325
2010	17	9.44	-1.67	6.39	1.665	67.46757635	170.790435	33999	23.42281944	0.3557
2010	18	3.89	-1.11	2.51	0.01	129.5067224	26.47219289	34092	23.434375	1.0997
2010	19	6.11	2.22	5.04	0.015	179.3813113	203.5951093	34187	22.54969861	1.03715
2010	20	4.44	-2.22	2.61	0	253.3243194	45.43497156	34285	23.50430556	0.8093
2010	21	1.67	-7.22	-0.78	0	178.2963888	164.4032455	34386	23.7428125	0.62425
2010	22	3.33	-6.67	0.58	0.065	242.7984897	294.5434776	34489	24.11986111	1.04025
2010	23	2.78	-4.44	0.79	0	267.359495	103.8670328	34595	24.86203125	0.99835
2010	24	5	-5	2.25	1.476	142.2054918	298.4909374	34703	24.89586806	1.36965
2010	25	13.33	1.67	10.12	3.723	284.4608514	68.47710691	34814	25.18758681	4.75605
2010	26	11.67	-1.67	8	0.028	387.2378933	77.96546985	34926	25.37833333	2.4762
2010	27	0.56	-3.89	-0.67	0.004	234.7107231	176.6892301	35042	25.14270833	1.2507
2010	28	0.56	-3.89	-0.67	0.068	202.1964405	229.6415143	35159	24.89121528	0.5752
2010	29	1.67	-13.33	-2.46	0	232.2756603	193.8167697	35278	24.84293403	-0.06185
2010	30	-7.22	-13.33	-8.9	0	153.0169118	276.4918644	35400	25.19569444	-0.40455
2010	31	-8.33	-13.89	-9.86	0	155.742414	142.3351068	35523	25.56137153	-0.8738
2010	32	-2.22	-13.33	-5.28	0	191.5766279	338.7432467	35649	25.75135417	-0.81785
2010	33	-1.11	-7.78	-2.94	0.188	149.8203472	258.1529517	35776	25.88600694	-0.51775
2010	34	1.67	-6.67	-0.62	0.003	138.2543235	170.4110291	35905	25.88001736	-0.2968
2010	35	1.11	-4.44	-0.42	0	282.8756916	113.4632035	36036	25.80508681	-0.4023
2010	36	3.33	-4.44	1.19	1.194	169.1546818	336.3579861	36169	25.75015625	-0.1987
2010	37	1.11	-5.56	-0.72	0.582	179.3266347	68.67597719	36303	25.16557986	-0.10205
2010	38	-2.22	-15.56	-5.89	0.001	140.014984	205.5920143	36440	23.16450909	0.0505
2010	39	-2.22	-14.44	-5.58	0	135.2405321	369.5466277	36577	24.76012431	0.0966
2010	40	-1.67	-10.56	-4.11	0.269	77.78833028	401.6545103	36716	24.9365625	0.1391
2010	41	-2.22	-8.89	-4.06	0.704	61.59693208	131.9910465	36857	25.55041667	0.0764
2010	42	-2.78	-9.44	-4.61	0.001	139.1377205	104.2889808	36999	27.01949653	0.11825
2010	43	-1.11	-5.56	-2.33	0	209.4065999	229.4715828	37143	31.52171875	0.27105
2010	44	1.11	-7.78	-1.33	0.01	211.6857332	340.1720171	37287	27.46090278	0.2314
2010	45	-3.33	-7.78	-4.56	0.004	137.1988201	192.6055619	37433	26.45805556	0.22225
2010	46	-1.11	-9.44	-3.4	0.371	119.729269	126.4190948	37581	26.06119444	0.29775
2010	47	0.56	-9.44	-2.19	0.011	165.7281876	221.9893451	37729	25.05171458	0.30895
2010	48	-1.11	-6.67	-2.64	0.017	161.4629869	248.4792629	37879	25.04913889	0.3627
2010	49	0.56	-5	-0.97	0.002	215.9663021	192.9330774	38029	24.60685764	0.43635
2010	50	2.78	0	2.01	0	320.3520665	270.4695529	38181	23.84003542	0.43115
2010	51	4.44	-3.89	2.15	0	334.1611361	301.7261178	38334	23.71264514	0.37345
2010	52	5	-3.89	2.56	0	409.1621616	232.2372749	38487	21.68296736	0.39555
2010	53	7.22	-3.33	4.32	0.15	253.520992	407.1309456	38642	22.90065417	0.44675
2010	54	4.44	-2.22	2.61	0.017	75.61425035	137.8104026	38798	24.66495833	0.5241
2010	55	3.33	-0.56	2.26	0	263.6064599	104.6039945	38954	25.70498611	0.71
2010	56	2.78	-2.22	1.4	0.06	207.1322165	208.8667638	39111	25.23444444	0.5603
2010	57	0.56	-6.67	-1.43	0.315	120.0686571	222.8887927	39269	25.47327778	0.34435
2010	58	-2.22	-5.56	-3.14	0.081	119.7091058	132.2950695	39428	27.04125	0.5338
2010	59	1.67	-3.89	0.14	0.016	187.3356345	272.2746861	39587	26.90794406	0.6136
2010	60	4.44	-1.11	2.92	0.006	233.5345711	251.1958638	39747	26.4651875	0.7826
2010	61	3.89	0	2.82	0.005	243.5892452	165.3150575	39907	25.49321528	0.85235
2010	62	3.33	-0.56	2.26	0.043	207.0671659	182.1579814	40068	25.21815278	0.9594
2010	63	4.44	-2.78	2.46	0	394.4714723	115.5337808	40230	24.75843056	1.014
2010	64	5	-2.78	2.86	0	426.5389723	439.5047534	40392	24.449625	1.38415
2010	65	7.22	-5	3.86	0	483.723969	419.4639872	40555	24.32079861	1.60335
2010	66	9.44	-4.44	5.62	0	602.7230652	467.4409352	40718	24.34745833	2.81135
2010	67	10.56	-1.11	7.35	0.001	646.133554	460.0942958	40882	24.28802778	3.8236
2010	68	11.67	-0.56	8.31	0	594.5900011	461.4164596	41046	24.17101389	4.48245
2010	69	15.56	1.11	11.58	0.003	679.1629471	454.4945402	41210	24.12263889	5.2261
2010	70	15.56	2.22	11.89	0.006	541.3981871	261.2535589	41375	24.06370833	7.5602
2010	71	18.89	3.89	14.76	1.034	178.3883097	421.2968946	41540	24.00941667	7.50245
2010	72	10	5	8.62	3.237	123.9284277	64.10411222	41705	23.95775	6.3749
2010	73	8.33	5	7.42	0.322	103.5372274	55.12892286	41870	23.89605556	6.1871
2010	74	6.67	4.44	6.06	0.041	196.7819722	65.61390237	42036	23.82623611	5.8864
2010	75	6.67	4.44	6.06	0	528.4148953	78.1147339	42202	23.78219444	7.54625
2010	76	15.56	-0.56	11.13	0	786.6147442	476.9151246	42368	23.74279167	7.27365
2010	77	17.78	0	12.89	0	884.5385146	492.73607	42534	23.74394444	7.3701
2010	78	18.89	1.67	14.15	0	912.8883794	470.4246036	42701	23.75131944	8.23255
2010	79	20	6.11	16.18	0	1037.163672	467.6267992	42867	23.75009722	9.093
2010	80	21.11	6.67	17.14	0	1167.51575	434.3761299	43033	23.73116667	10.6082
2010	81	22.78	7.78	18.65	0.346	561.2853258	416.7556944	43200	23.68913889	10.98355
2010	82	18.33	7.78	15.43	0.215	335.6198265	124.479454	43366	23.65336111	8.70925
2010	83	8.33	2.78	6.81	0	570.5693522	48.67755496	43533	23.626	8.40525
2010	84	15.56	2.78	12.04	1.081	517.5675446	503.9315774	43699	23.58529167	8.36645
2010	85	18.33	-1.11	12.99	0.221	733.2761299	231.4165508	43865	23.74930556	7.6862
2010	86	5	-5.56	2.1	0	443.5347271	467.6842978	44032	25.01404167	5.67815
2010	87	8.89	-5.56	4.92	2.297	172.9833566	470.2192181	44198	25.36675	4.8902
2010	88	7.22	2.78	6	0	186.4774684	150.5477538	44363	24.96466667	7.63325
2010	89	14.44	1.67	10.93	0.002	690.6611826	225.4681668	44529	24.71884722	6.77815
2010	90	10	1.67	7.71	0	707.0691914	266.377738	44695	24.51696111	8.67705
2010	91	20	5	15.88	0.028	1108.768058	511.437004	44860	24.43287292	10.3838
2010	92	26.67	6.67	21.17	0	1343.450028	507.3818101	45025	24.36423611	12.1475
2010	93	28.33	10	23.29	0	1371.97667	462.4367559	45190	25.10580556	13.08435
2010	94	25.56	12.22	21.89	0	1784.308152	435.8771001	45354	25.18320979	12.6839
2010	95	21.11	7.22	17.29	0.127	1113.620212	465.9983303	45518	24.91984722	12.4913
2010	96	26.67	8.33	21.63	0.157	1268.346143	406.7829076	45681	24.68833333	14.62525
2010	97	30	15.56	26.03	0.049	2277.840818	446.655186	45845	24.48108333	14.6087
2010	98	29.44	12.22	24.71	0.194	1355.85076	379.7380833	46007	24.50379167	14.0628
2010	99	28.89	4.44	22.17	0.037	1122.008326	372.5798913	46169	24.43018056	10.1235
2010	100	7.22	3.89	6.31	0	562.5312808	179.55233	46331	24.20797222	10.1236
2010	101	16.67	5.56	13.61	0.126	923.1641868	548.0731954	46492	24.411375	10.915
2010	102	21.11	2.78	16.07	0	1318.838169	437.8569009	46653	26.44329167	11.38155
2010	103	18.89	4.44	14.92	0.001	845.7859205	518.1982569	46813	26.81265278	9.9551
2010	104	13.33	0	9.67	0	506.9135009	221.6722941	46972	26.32684722	10.11715
2010	105	18.33	2.78	14.06	0	837.0168582	526.7408075	47131	25.41788889	11.29485
2010	106	25.56	7.78	20.67	0.557	874.0810633	461.4455159	47289	24.56205556	12.81065
2010	107	25.56	6.11	20.21	0.068	825.0047669	318.0201281	47446	24.19981944	9.6511
2010	108	7.22	1.67	5.69	0.017	312.1296568	170.5551657	47602	24.50026389	8.27765
2010	109	9.44	1.67	7.31	0	517.9129054	200.2423678	47758	24.57443056	9.9938
2010	110	17.22	2.22	13.1	0	745.8473127	558.1331817	47912	24.31551389	10.67165
2010	111	18.33	5	14.67	0.063	608.2405161	482.3339367	48066	23.97268056	10.9199
2010	112	20	4.44	15.72	0.056	751.3825465	396.1591281	48219	23.79706944	10.98065
2010	113	20	3.33	15.42	0.001	1116.214058	385.3875336	48370	25.06922222	11.48975
2010	114	19.44	3.89	15.17	0.111	757.695633	564.1263783	48521	24.94690278	10.0892
2010	115	16.67	6.11	13.76	1.316	125.4044897	259.9680097	48671	24.64791489	9.99395
2010	116	11.67	7.78	10.6	1.117	100.9510084	107.3452959	48819	24.24822222	10.27355
2010	117	12.22	5.56	10.39	0	599.0647484	107.8803864	48966	23.84652778	10.041
2010	118	11.11	1.67	8.51	0	629.9726654	455.3688101	49112	23.51213889	8.95395
2010	119	12.78	2.78	10.03	0.073	801.9290074	399.0018881	49257	23.253875	10.49355
2010	120	19.44	6.67	15.93	0.019	905.2578058	546.7403494	49401	22.87305556	12.62295
2010	121	27.78	10	22.89	0	1358.744456	521.5866621	49543	22.34695833	14.48965
2010	122	30.56	15.56	26.43	1.075	594.7040993	450.8251716	49683	21.97533333	15.07285
2010	123	23.89	17.78	22.21	0.754	641.6816102	146.5390482	49823	21.63776389	15.9993
2010	124	25	12.78	21.64	0.37	871.2859522	270.4929544	49960	21.16761111	14.34335
2010	125	22.22	8.89	18.56	0	858.2302341	442.5669115	50096	20.71877778	14.15175
2010	126	26.67	11.11	22.39	0.27	1221.65997	569.4504788	50231	20.40479167	14.56045
2010	127	21.11	6.11	16.99	0	743.1969638	560.3188452	50363	20.14288889	13.03455
2010	128	20.56	8.33	17.19	0.813	641.877035	446.5041489	50495	19.77744056	12.9094
2010	129	16.11	2.78	12.44	0.001	632.339722	343.873558	50624	19.41451389	9.71015
2010	130	8.33	2.22	6.65	0	538.1930523	221.9358042	50751	19.75061111	9.7535
2010	131	15	1.67	11.33	2.929	284.1894484	601.7866816	50877	20.70661111	8.17165
2010	132	9.44	3.33	7.76	0.369	95.03821326	84.61235294	51000	20.68443056	9.36805
2010	133	16.11	6.67	13.51	0.001	325.1761622	124.2531591	51122	20.55356944	10.4872
2010	134	14.44	7.78	12.61	0.295	322.4562471	204.1767335	51241	20.42502778	13.00815
2010	135	27.22	11.11	22.79	0	1337.088583	332.1215001	51358	20.24502778	13.6373
2010	136	21.11	10.56	18.21	0.003	900.2163436	517.0892312	51473	20.12066667	13.3226
2010	137	19.44	8.89	16.54	0.338	439.1544302	545.8230915	51586	20.05848611	12.1262
2010	138	15.56	8.33	13.57	0.512	179.6434306	138.9265141	51697	19.86688889	11.1117
2010	139	11.67	8.33	10.75	0.003	250.5843739	92.26130682	51805	19.52051389	11.71315
2010	140	17.78	10	15.64	0.001	659.6935837	253.1652475	51910	19.17756944	13.9381
2010	141	27.22	13.33	23.4	0	1003.374627	550.5801323	52014	18.81490278	14.724
2010	142	27.78	15.56	24.42	1.541	781.8861175	410.6865142	52114	18.46083333	14.86865
2010	143	22.22	15	20.24	0.632	266.716222	299.7104497	52212	18.17451389	15.4155
2010	144	22.22	13.89	19.93	0.005	399.917488	255.3545538	52308	17.99347222	15.6872
2010	145	23.33	15	21.04	0.007	644.1077855	286.6230725	52400	17.65923611	16.79895
2010	146	26.67	16.11	23.76	0	895.8815694	439.6306725	52490	17.33179167	17.49145
2010	147	30	17.78	26.64	0	1313.359499	547.7983339	52577	17.09591837	18.4505
2010	148	30.56	18.89	27.35	0.049	664.1662989	479.0819376	52662	18.54953476	17.6645
2010	149	26.11	17.78	23.82	0	684.3608582	289.6928502	52743	18.29260144	17.88495
2010	150	26.11	13.33	22.6	0	956.8020012	354.3647792	52821	17.8974919	17.787
2010	151	30	16.11	26.18	0.126	789.0704057	569.5046317	52896	17.47813315	17.96995
2010	152	30.56	17.78	27.04	0.308	503.5565497	397.5129038	52969	17.14368364	18.05015
2010	153	26.11	14.44	22.9	0.001	795.9966503	256.7324937	53038	16.87009129	17.93345
2010	154	28.33	16.11	24.97	0	918.3023758	527.5724912	53103	16.6585883	18.6541
2010	155	27.78	18.89	25.33	0.04	670.8221589	376.3463868	53166	16.49525106	18.71835
2010	156	28.33	18.89	25.74	0.189	534.0558894	354.1336778	53225	16.37471221	18.8119
2010	157	27.78	18.89	25.33	0.105	791.4485343	293.8819467	53281	16.26669967	18.6585
2010	158	25.56	12.78	22.04	0	1096.404058	343.5280309	53334	16.17180857	16.5077
2010	159	21.11	10	18.06	0	920.4562131	410.4082198	53383	16.07847001	15.667
2010	160	22.22	11.67	19.32	3.931	255.7260075	585.2579124	53429	17.04793125	14.1904
2010	161	17.22	12.22	15.85	0	513.1863292	72.04826916	53471	20.6067264	16.46785
2010	162	25.56	12.78	22.04	0	685.5874432	487.6168193	53510	19.72437754	16.7669
2010	163	25.56	13.89	22.35	0.021	570.430018	467.1209801	53546	19.50688617	18.54035
2010	164	31.11	19.44	27.9	0.529	730.595471	471.5924371	53577	19.56715189	19.7671
2010	165	28.33	16.67	25.12	0.009	625.1153143	296.6134574	53606	20.12674459	18.63015
2010	166	25	18.33	23.17	0.018	529.8318543	218.7056312	53630	16.23746154	18.01795
2010	167	23.33	17.78	21.81	0.105	485.7824635	255.665188	53651	16.24268056	18.58725
2010	168	28.33	17.22	25.28	0	1173.624179	428.3863683	53669	16.18630556	18.3235
2010	169	23.33	11.67	20.12	0	676.6384707	434.4317648	53682	15.9015	17.5567
2010	170	27.22	13.89	23.56	0.043	778.92801	574.6877247	53693	15.56426389	18.76825
2010	171	31.11	17.78	27.44	0	1104.615981	503.0047114	53699	15.36104167	19.7258
2010	172	28.89	16.11	25.38	0	1056.244733	418.5089568	53702	15.262	19.478
2010	173	29.44	18.89	26.54	0.449	654.9866769	523.446677	53701	15.22109722	19.1849
2010	174	27.78	20.56	25.79	0.042	875.979023	289.275514	53696	14.98743056	20.5325
2010	175	31.67	20.56	28.61	0.009	1198.900125	496.9816905	53688	14.70886111	20.3968
2010	176	28.33	16.67	25.12	0	1026.932597	378.4889336	53676	14.48811111	19.67355
2010	177	27.22	17.22	24.47	0	950.2680028	495.7837908	53661	14.32360839	18.2014
2010	178	30	19.44	27.1	1.034	899.8804639	446.1037453	53641	14.09380556	20.1199431
2010	179	31.67	21.11	28.76	0.139	968.1793801	452.7681046	53619	13.889375	20.4326932
2010	180	26.67	19.44	24.68	0	1134.858296	228.4517279	53592	13.75858333	19.69275925
2010	181	25	8.89	20.57	0	1057.861714	488.4842612	53562	13.61706944	17.26080255
2010	182	22.22	10	18.86	0	983.406447	539.4237142	53529	13.433	16.39046735
2010	183	22.22	10	18.86	0	883.5957742	474.1217962	53491	13.27719444	16.36619675
2010	184	25	12.22	21.49	0	1060.72511	574.5579877	53451	13.15165278	17.07579245
2010	185	30	13.33	25.42	0	1367.643937	574.7227143	53407	13.06165278	18.13305385
2010	186	32.78	18.33	28.81	0	1530.310727	565.443018	53359	13.01658333	19.56672245
2010	187	34.44	20.56	30.62	0	1773.996979	475.057271	53308	12.95969444	20.3737199
2010	188	33.89	21.11	30.38	0	1710.002764	492.9856537	53254	12.90417778	21.0011362
2010	189	33.89	21.11	30.38	0	1870.65705	496.0998383	53196	12.98044367	20.9694141
2010	190	34.44	22.22	31.08	3.792	1197.390857	476.904338	53135	12.91867544	21.1201473
2010	191	32.78	18.33	28.81	0.019	1312.467067	392.8769196	53071	12.87755889	20.67209925
2010	192	27.78	14.44	24.11	0	1133.416809	525.5413365	53004	12.517825	19.5853512
2010	193	30	17.22	26.49	0.795	682.3568476	568.3926095	52933	12.47688889	19.1418805
2010	194	27.78	19.44	25.49	0.401	456.26382	344.053689	52860	12.512	19.77472575
2010	195	25.56	19.44	23.88	0.925	524.0691574	206.5965368	52783	12.73629167	20.49965025
2010	196	28.33	18.33	25.58	0	848.8172994	312.7365805	52703	12.82720833	21.8103
2010	197	30.56	20	27.65	0.487	485.2050045	501.7411631	52620	12.88808333	20.8047
2010	198	29.44	18.89	26.54	0.003	831.2836514	324.7284858	52535	12.99002778	21.1936
2010	199	30	18.89	26.94	0.003	1335.872475	494.1107234	52446	13.01106944	21.94895
2010	200	31.67	22.22	29.07	0.001	1172.862153	516.2557922	52355	12.96993007	21.58485
2010	201	30.56	18.33	27.19	0.459	546.8714812	459.8963854	52261	12.88913889	20.7184
2010	202	29.44	18.89	26.54	0.761	750.04759	326.6476689	52164	12.78380556	21.49515
2010	203	31.11	18.89	27.75	0	979.5500502	417.1403822	52065	12.677875	21.18765
2010	204	29.44	20	26.85	0.001	1130.484838	516.7896773	51963	15.48365278	22.2376
2010	205	33.89	22.22	30.68	0.008	1667.306151	440.4106213	51858	15.91062857	23.31115
2010	206	32.78	22.22	29.88	0.201	1058.341802	478.5279318	51751	15.82507474	22.02895
2010	207	27.22	17.22	24.47	0	1104.311093	280.8925487	51642	15.64746027	20.3593
2010	208	27.78	16.11	24.57	0	989.1303315	564.1301378	51530	15.33238481	20.01675
2010	209	29.44	18.33	26.39	0.001	1062.703218	530.1708773	51417	15.00109352	20.79865
2010	210	30.56	20	27.65	0.312	1242.692256	499.9139181	51300	14.71812593	21.5925
2010	211	28.89	14.44	24.92	0	1191.594979	458.6983705	51182	14.74344444	19.4826
2010	212	25.56	13.33	22.19	0	1046.683227	492.6402217	51062	14.61369444	19.0563
2010	213	26.67	15.56	23.61	0.003	1014.72537	468.5463397	50939	14.33138889	19.99915
2010	214	27.78	18.33	25.18	0	799.9971262	406.3037292	50815	14.06277778	19.4676
2010	215	25.56	19.44	23.88	0.122	482.7329491	319.319839	50688	13.81936111	20.1243
2010	216	28.33	21.67	26.5	0.21	643.2302471	250.2314478	50560	13.59243056	21.54945
2010	217	32.22	20.56	29.01	0.016	1043.26288	360.6039064	50430	13.39063889	21.46715
2010	218	28.33	18.33	25.58	0.199	980.2004728	368.7530916	50298	13.17961111	20.35915
2010	219	25.56	15	22.65	0	950.096899	392.7425644	50164	12.98495833	19.36829965
2010	220	26.67	13.89	23.15	0	1108.238357	462.3589718	50029	12.82963889	19.12303885
2010	221	29.44	15	25.47	0	1455.063619	506.9994989	49892	12.68479167	19.8303991
2010	222	32.22	17.22	28.1	0	1413.836914	509.5128834	49754	12.52768056	21.97115
2010	223	32.22	20	28.86	0	1543.52506	388.7245536	49614	12.40822222	21.68055
2010	224	31.67	20	28.46	1.738	407.2173777	505.668277	49472	12.27735664	20.69545
2010	225	23.33	16.67	21.5	0.057	456.9723593	142.4630043	49330	12.24304167	19.37285
2010	226	21.67	17.22	20.44	0	729.8387913	171.2793884	49186	12.28175	19.13545
2010	227	24.44	19.44	23.07	0.924	306.2990266	208.9867047	49040	12.23555556	19.6496
2010	228	27.22	19.44	25.08	0	894.7940435	221.0361394	48894	12.16504167	21.48875
2010	229	30	16.67	26.33	0	1297.342299	449.2098429	48746	12.18602778	19.68695
2010	230	27.78	17.78	25.03	0	866.6201794	506.3022615	48597	13.12259722	19.0692
2010	231	25.56	14.44	22.5	0	779.0633917	270.5033852	48446	13.30256944	19.03655
2010	232	30	16.11	26.18	0	1085.611031	468.7396625	48295	13.32358333	19.65515
2010	233	29.44	16.67	25.93	0.435	1022.523487	461.6193631	48143	13.29245833	19.74695
2010	234	28.33	17.22	25.28	4.741	519.1962818	306.8267764	47990	13.16330556	20.61935
2010	235	26.11	17.22	23.67	0.2	405.6654593	253.2890919	47836	13.07261538	18.9186
2010	236	20.56	15	19.03	0.053	371.05711	155.1791699	47681	13.00573611	18.67658755
2010	237	20.56	15	19.03	0.085	441.8330614	172.3907628	47525	12.91180556	18.9059873
2010	238	25	16.67	22.71	0.012	877.2703059	279.0671128	47368	12.78156643	18.84435275
2010	239	24.44	10.56	20.62	0.095	748.6583543	455.2917814	47210	12.63038889	17.67084795
2010	240	25	10.56	21.03	0	779.5339742	547.6961022	47052	12.60693056	17.45049645
2010	241	27.22	12.22	23.1	0	791.4642562	536.0757896	46893	13.337125	19.25715
2010	242	30.56	14.44	26.13	0	1024.022671	518.6078444	46734	13.47505556	18.93485
2010	243	30.56	16.67	26.74	0	1047.837738	511.5565456	46573	14.81288889	19.4774
2010	244	32.22	18.33	28.4	0	1262.067289	488.2495637	46413	14.62229246	19.8568
2010	245	32.22	18.33	28.4	0	1320.47912	492.8001341	46251	14.30514773	20.10395
2010	246	32.78	18.33	28.81	0.006	1314.304528	503.9149906	46089	14.15147272	19.73125
2010	247	31.67	15	27.08	0	1431.1609	400.319028	45927	14.36067836	17.4729
2010	248	19.44	10.56	17	0	721.8798257	265.2846998	45764	14.51632454	15.4638
2010	249	20	7.78	16.64	0	679.7199161	415.3873904	45600	14.45262371	15.45825
2010	250	25.56	8.89	20.97	0.002	1107.261922	457.7717499	45437	14.40529273	17.706
2010	251	31.67	15	27.08	0	1890.012094	495.0344584	45272	14.28242251	18.5495
2010	252	23.89	13.33	20.99	0	1038.530398	503.5719828	45108	14.16806122	16.40635
2010	253	19.44	12.78	17.61	0.002	777.2339625	231.0999266	44943	14.0883066	16.25445
2010	254	20	8.33	16.79	0.202	748.6275351	290.650163	44778	14.058825	15.6156
2010	255	22.78	10	19.26	0.459	216.9822357	447.5443705	44613	14.07475304	16.0779
2010	256	20.56	9.44	17.5	0.003	619.4254481	139.7689383	44447	14.07223242	16.16095
2010	257	25	11.11	21.18	0	1061.000073	452.1078792	44281	14.0473491	15.6438
2010	258	22.78	11.11	19.57	0	990.0210669	500.4573501	44115	14.07596293	15.6025
2010	259	23.89	10.56	20.22	2.56	372.4080067	503.9175863	43949	14.07724873	14.19645
2010	260	17.78	11.67	16.1	0.049	375.0209321	84.36151018	43783	14.0613762	15.95805
2010	261	17.78	8.89	15.33	0.006	375.7720653	239.2505674	43617	14.03864759	15.2592
2010	262	22.78	8.89	18.96	0.021	480.5608047	453.506214	43450	14.05566318	16.22885
2010	263	26.11	11.67	22.14	0	1081.792827	332.6857037	43284	14.05900852	15.76385
2010	264	20.56	7.22	16.89	0	643.9765751	493.7118306	43117	14.05608913	14.5052
2010	265	25	7.22	20.11	0.013	635.0261859	480.9962981	42951	14.03960712	16.79105
2010	266	30.56	15	26.28	0	782.4224953	375.1295812	42784	14.02523337	18.1603
2010	267	28.89	16.11	25.38	0	1217.707535	349.8233376	42618	14.04872213	19.1033
2010	268	31.11	17.22	27.29	0	1751.510632	405.625106	42452	14.05499819	18.8761
2010	269	25.56	10	21.28	0.007	831.7510312	472.0965095	42286	14.10892469	15.8977
2010	270	18.33	10	16.04	2.374	164.7892971	268.5343305	42120	14.76199701	16.21545
2010	271	20	13.33	18.17	0.476	426.1130836	99.07493922	41954	14.59044771	17.60795
2010	272	22.78	12.22	19.88	0.011	487.310112	298.0669331	41788	15.07225758	15.56565
2010	273	18.33	12.22	16.65	7.102	126.6738748	248.5008769	41623	14.98034766	15.845
2010	274	17.78	12.22	16.25	0.315	547.663525	17.46538666	41458	15.01037678	15.5730378
2010	275	18.33	5.56	14.82	0	426.5965178	271.3559683	41293	15.02981759	13.9933198
2010	276	16.67	5.56	13.61	0.08	575.8699083	458.080284	41129	14.88973958	13.7271948
2010	277	16.67	6.11	13.76	0.539	278.6348763	337.7378674	40964	14.83211145	12.53016455
2010	278	9.44	6.67	8.68	0.213	133.5831472	101.3366339	40801	15.69228071	11.87954215
2010	279	11.11	7.78	10.19	0.153	190.0250428	71.4293378	40637	16.84249999	12.02495285
2010	280	12.22	8.33	11.15	0.014	463.5628944	85.42313584	40474	17.36479831	13.1570486
2010	281	18.89	7.22	15.68	0	655.8766755	338.7311719	40312	17.80968053	13.42328005
2010	282	22.22	7.78	18.25	0.069	779.6958025	438.6341968	40150	18.16065667	13.96830405
2010	283	22.78	6.67	18.35	0	692.8307783	417.9222036	39989	18.526387	14.13606925
2010	284	25	6.67	19.96	0.079909632	741.3670975	369.4599528	39828	18.94913793	15.35556045
2010	285	24.44	12.78	21.24	0.523662809	521.5284483	277.3587617	39667	19.9875	15.44926915
2010	286	20.56	3.33	15.82	0.040224015	566.6405233	344.9811684	39508	19.36772297	13.83551318
2010	287	15.56	3.89	12.35	0.147938583	231.1095259	441.6509441	39349	19.42986415	12.55137102
2010	288	12.22	6.11	10.54	0.048341628	468.0303829	77.99188589	39191	19.64180375	12.49730187
2010	289	13.89	6.11	11.75	0.006908119	761.6832293	307.2938539	39033	20.05730469	12.46922751
2010	290	16.11	6.67	13.51	0	685.4528063	422.1212059	38876	20.48508681	12.28414468
2010	291	19.44	5	15.47	0.08731825	555.0569026	392.1113378	38720	21.93483696	11.96596856
2010	292	11.67	5.56	9.99	0.159114079	282.4429187	124.3855309	38565	22.98052232	11.75177157
2010	293	13.33	2.78	10.43	0	414.7898982	271.7385645	38411	23.46168595	10.85820064
2010	294	15.56	3.33	12.19	0.008091048	699.3025205	347.0574259	38258	23.78260869	10.854082
2010	295	13.33	3.33	10.58	0.070468828	490.3280585	282.2905054	38106	24.07839733	10.31643168
2010	296	10.56	3.33	8.57	0	557.1833776	197.7326571	37955	24.57997295	10.41461131
2010	297	21.67	8.89	18.15	0	1012.377238	300.9086076	37804	24.78021188	11.98982655
2010	298	22.78	10	19.26	0.267831436	789.3058313	292.8822202	37655	24.94283389	12.69133219
2010	299	20.56	10.56	17.81	0	358.6443465	159.6884315	37507	25.8094752	13.34998166
2010	300	20.56	11.11	17.96	0.939814336	632.6654051	209.8228366	37361	27.42969848	14.2014283
2010	301	21.11	12.22	18.67	0	1297.96509	332.1233642	37215	34.82706662	13.05622199
2010	302	17.78	6.11	14.57	0.01376125	689.7388036	358.5730895	37071	34.42544574	11.86302923
2010	303	9.44	1.11	7.15	0	444.2267866	155.9733536	36928	27.80082963	10.53937501
2010	304	14.44	1.67	10.93	0	808.029403	259.3493354	36787	28.51077852	10.72237827
2010	305	10.56	0	7.65	0	472.1719969	293.7119819	36647	31.18412046	9.806322197
2010	306	8.89	-2.78	5.68	0	319.3909071	371.8125668	36509	30.7886185	8.693745592
2010	307	8.89	-3.33	5.53	0	312.2789986	367.1941878	36372	30.47688632	8.297585137
2010	308	11.67	-1.67	8	1.06781907	83.69635213	355.4632834	36237	30.20944354	8.958892353
2010	309	7.22	4.44	6.46	0.148926353	175.9257212	54.8098496	36103	30.13001737	9.002563584
2010	310	7.78	0	5.64	0.016347056	172.1142941	100.7224709	35971	29.95596238	8.416066013
2010	311	6.67	-1.67	4.38	0	210.7492259	146.9910438	35841	29.7840792	7.713447216
2010	312	7.22	-1.67	4.78	0	361.6596132	185.7458068	35713	29.65687324	7.935631487
2010	313	12.78	1.67	9.72	0	368.5225518	335.5141348	35586	29.47793168	8.518141652
2010	314	13.33	2.78	10.43	0	419.5066571	310.0616716	35462	29.27649638	9.171559323
2010	315	15.56	-0.56	11.13	0	492.2783269	330.0317213	35339	29.15115196	8.43292567
2010	316	14.44	-1.67	10.01	0	481.0964535	337.9227122	35219	29.5085697	7.851922784
2010	317	15.56	-2.78	10.51	0	559.4893169	340.6536752	35100	30.40064031	7.574971648
2010	318	16.11	-2.22	11.07	0.029475129	579.0470585	335.348102	34984	30.15638934	7.376330116
2010	319	16.11	1.11	11.99	0.141646561	372.2928587	248.0123315	34870	29.76608421	8.289251908
2010	320	11.11	5.56	9.58	1.358695403	152.0840852	203.0266118	34759	29.17116363	8.246120965
2010	321	13.33	6.11	11.35	0.834522455	320.9556925	44.64180784	34649	28.40017139	8.804495498
2010	322	10	4.44	8.47	0.020112001	232.0091213	67.80163279	34542	28.48696619	8.331898247
2010	323	7.22	0.56	5.39	0.045513148	269.3813889	64.19658517	34438	27.84628249	6.84658615
2010	324	8.33	1.67	6.5	0	277.0268488	233.4916997	34336	27.12167388	5.89683925
2010	325	9.44	0	6.85	0	207.7341228	107.2860356	34237	26.25222034	5.00265925
2010	326	10	0.56	7.4	0	298.3917824	257.8959578	34140	25.79192902	4.1013471
2010	327	16.11	7.78	13.82	0.002832253	539.9005792	237.1552899	34046	25.43489934	1.061348
2010	328	16.67	1.11	12.39	0	692.4428835	91.38558049	33954	25.14318485	0.98012665
2010	329	6.11	1.11	4.74	1.713758143	181.2210866	238.7872793	33866	24.89654376	0.63118355
2010	330	6.67	1.67	5.29	0.769087163	222.6173954	31.3071048	33780	24.68289353	0.26286655
2010	331	5.56	-1.67	3.57	0	302.8723865	234.1558002	33697	24.49444068	0.4554346
2010	332	1.67	-1.11	0.9	0	235.2704458	74.68713189	33618	24.32586385	0.71719515
2010	333	5.56	-4.44	2.81	0	198.9130146	285.5329895	33541	24.17336756	0.6702507
2010	334	7.22	-4.44	4.01	3.310067341	144.0269041	271.9509367	33467	24.03414936	0.29480155
2010	335	15.56	6.11	12.96	3.143135068	217.6643005	35.0959667	33397	23.90608103	0.19857075
2010	336	8.89	-3.33	5.53	0.001751674	225.6602918	59.24984248	33329	23.78750827	0.1098979
2010	337	0	-3.89	-1.07	0.007292948	141.7869422	117.1770329	33265	23.67711968	0.1907999
2010	338	0.56	-3.33	-0.51	0.003402872	141.1717228	105.6861222	33204	23.63927835	0.2740438
2010	339	1.11	-5	-0.57	0.003878706	208.3396032	135.5414228	33146	23.47560764	0.50472095
2010	340	0	-4.44	-1.22	0.000113745	185.6257966	181.157319	33092	23.36989583	0.20623515
2010	341	-1.67	-5.56	-2.74	0.009670218	148.6670345	112.8574196	33041	23.28010417	0.1377878
2010	342	-2.22	-6.67	-3.44	0	170.1421997	109.4410329	32993	23.18447917	0.22922835
2010	343	-2.22	-7.78	-3.75	0.003	169.1102716	141.160885	32949	23.16821181	0.41551585
2010	344	-1.11	-7.78	-2.94	0.141	92.37163869	278.3194871	32909	23.18052083	0.5105757
2010	345	-1.11	-6.11	-2.49	0.001	125.3133763	68.04100754	32872	23.17496528	0.39699355
2010	346	3.33	-6.67	0.58	1.151	53.99989583	214.0411109	32838	23.1303125	0.2116641
2010	347	6.67	-5.56	3.31	0.019	286.7707843	43.10753475	32808	23.08190972	0.05145685
2010	348	-2.78	-10.56	-4.92	0.026	157.1837901	185.3396376	32782	23.07232639	-0.0766025
2010	349	-6.11	-10	-7.18	0.002	133.9123063	131.4019964	32759	23.05921875	-0.05030935
2010	350	-4.44	-10	-5.97	0	116.3516088	142.4384239	32740	23.04821181	0.1552456
2010	351	-3.89	-10	-5.57	0	127.3264968	133.26696	32724	23.03782986	0.19644175
2010	352	-1.11	-6.67	-2.64	0	177.9268931	146.6265591	32712	23.04263889	0.5039758
2010	353	-0.56	-10.56	-3.31	0	125.3856509	173.7958048	32704	23.00494792	0.55113315
2010	354	-1.67	-11.11	-4.26	0.006	122.916714	199.5150922	32699	22.98447917	0.61095805
2010	355	-1.67	-4.44	-2.43	0.001	206.3356866	68.5882317	32698	23.06710069	0.54708805
2010	356	1.67	-5	-0.17	0	258.9447398	261.5004434	32701	23.14897569	0.8471706
2010	357	2.78	-3.89	0.94	0.007	253.2793513	154.8191213	32707	23.17597222	0.6723797
2010	358	1.11	-5	-0.57	0	228.4464871	146.2933032	32717	23.11803819	0.2915016
2010	359	0.56	-5	-0.97	0.003	180.6076639	237.0277718	32731	23.05378472	0.12362995
2010	360	-1.11	-6.11	-2.49	0.003	171.8522103	95.08027726	32749	22.98225694	0.214006
2010	361	-2.78	-8.89	-4.46	0	194.8111694	94.07567897	32770	22.94253472	0.2255026
2010	362	-2.22	-8.89	-4.06	0	193.5319113	263.7063792	32794	22.91946181	0.70420825
2010	363	1.11	-6.11	-0.88	0	209.7445961	213.9627993	32822	22.94737847	0.35015555
2010	364	4.44	-7.22	1.24	0.002	149.7636122	237.5259634	32854	22.99057292	0.20176425
2010	365	3.33	-7.22	0.43	0	147.0148056	124.7939433	32889	23.03008681	0.10818949
