"Shalehills,"	2012	:	input	for	MTCLIM	v4.3				
MTCLIM	v4.3	OUTPUT	FILE	:	Mon	Jan	16	16:32:50		
	yday	Tmax	Tmin	Tday	prcp	VPD	srad	daylen	SoilW	SoilT
		(degC)	(degC)	(degC)	(cm)	(Pa)	(Wm-2)	(s)	(%)	(deg C)
2008	1	4.44	-2.78	2.46	0.18	162.1754386	107.3576895	32928	13.97397852	2.70644181
2008	2	3.89	-5.56	1.29	0.02	187.1368421	242.3626217	32971	13.9897234	2.43278212
2008	3	-3.33	-11.11	-5.47	0	101.5438596	153.795681	33017	13.92126232	2.05580727
2008	4	-4.44	-10.56	-6.13	0	79.34736842	210.6844795	33066	13.40214784	1.50974273
2008	5	3.33	-9.44	-0.18	0.07	213.3263158	184.7731816	33119	13.74596935	0.30269122
2008	6	5.56	-0.56	3.88	0.02	153.9578947	216.999156	33175	13.48028909	0.2361847
2008	7	7.78	5	7.01	0.06	91.50175439	201.3661912	33234	16.27203109	0.82031272
2008	8	18.89	6.11	15.38	0	564.2736842	215.6980118	33296	16.29302426	2.46195715
2008	9	19.44	8.33	16.39	0.06	537.6280702	150.879084	33362	14.56738551	5.09837599
2008	10	11.67	-0.56	8.31	0.05	356.7017544	204.7227424	33431	13.82002859	6.3713066
2008	11	7.78	-0.56	5.49	2.31	221.4175439	101.7295765	33503	14.25015535	5.62279454
2008	12	10.56	2.78	8.42	0	250.8	220.641115	33579	14.13364325	4.71345382
2008	13	6.11	-2.22	3.82	0	199.2421053	135.333987	33657	13.84207142	4.71188527
2008	14	3.89	-2.22	2.21	0.12	138.4210526	111.5724702	33738	13.45019887	3.82283113
2008	15	2.78	-2.78	1.25	0	119.7754386	163.3214476	33822	13.23350268	3.27321121
2008	16	-1.11	-2.78	-1.57	0	32.70175439	175.9470937	33909	12.75964013	3.13496967
2008	17	0	-3.33	-0.92	0.77	65.66315789	56.70431483	33999	12.01776476	2.33260406
2008	18	2.22	-2.22	1	0.13	96.6877193	269.1626188	34092	11.92154606	2.14594661
2008	19	2.78	-6.67	0.18	0	173.9508772	105.2589581	34187	12.23702678	1.86789498
2008	20	-1.11	-12.22	-4.17	0	146.877193	205.0519469	34285	12.37149972	1.85294147
2008	21	-10	-13.89	-11.07	0	37.60701754	306.8234165	34386	12.21603361	1.15064935
2008	22	-5	-13.89	-7.44	0	98.44210526	78.45701528	34489	12.14827231	0.30697859
2008	23	2.78	-6.11	0.33	0	167.4526316	314.5387484	34595	14.99447994	-0.16871034
2008	24	-2.78	-7.78	-4.15	0	76.32280702	179.3039219	34703	16.96270645	-0.3033965
2008	25	-2.22	-10	-4.36	0	109.6210526	321.8284598	34814	13.26382615	-0.39144444
2008	26	-3.89	-10	-5.57	0.04	82.45614035	144.0329554	34926	12.13171103	-0.38255599
2008	27	-2.78	-8.33	-4.31	0	82.82807018	171.1772159	35042	11.08205243	-0.27997282
2008	28	-0.56	-5	-1.78	0	80.60350877	214.1984129	35159	9.580690734	-0.52372549
2008	29	2.22	-2.22	1	1.4	96.6877193	60.02176994	35278	11.01825651	-0.4414289
2008	30	5.56	-1.11	3.72	0.5	164.3087719	331.9026836	35400	11.92189595	-0.26376447
2008	31	0.56	-8.89	-2.04	0	149.9578947	310.5629592	35523	11.30423017	-0.10711861
2008	32	1.11	-7.78	-1.33	2.72	149.9017544	46.30497349	35649	11.83570731	-0.03308305
2008	33	2.78	-2.22	1.4	0	110.245614	73.32927102	35776	15.41224407	0.09742031
2008	34	1.11	-5.56	-0.72	0	123.1789474	260.4022003	35905	16.29104158	0.29024739
2008	35	6.11	-5	3.06	0.03	238.077193	38.36863137	36036	15.80411661	0.21255188
2008	36	5	0.56	3.78	1.03	115.4596491	80.53543089	36169	13.90913294	0.3763085
2008	37	13.33	3.33	10.58	1.38	351.2280702	78.46806049	36303	12.51122093	0.43350829
2008	38	16.67	1.67	12.54	0.01	536.0421053	45.74489572	36440	15.47883907	0.96848841
2008	39	3.33	-1.11	2.11	0.06	103.8526316	123.2830467	36577	17.86914497	3.39900892
2008	40	2.22	-2.22	1	0.78	96.6877193	138.0326833	36716	17.21415801	2.32110136
2008	41	4.44	-1.67	2.76	0.21	143.4385965	181.0377947	36857	17.31340905	1.84666727
2008	42	-1.11	-16.67	-5.39	0	170.5473684	361.1028676	36999	17.63332167	1.31398769
2008	43	-8.89	-16.67	-11.03	1.95	68.41403509	67.61667071	37143	17.72662466	0.8060912
2008	44	-3.33	-11.67	-5.63	0.53	106.2385965	88.37750422	37287	16.46551816	0.43058033
2008	45	0.56	-7.78	-1.74	0	138.5403509	386.4039751	37433	15.97696039	0.23754411
2008	46	2.22	-7.78	-0.53	0	173.5438596	48.00670552	37581	15.76562913	0.05203693
2008	47	2.78	-11.11	-1.04	0	213.5157895	360.9479711	37729	15.35066409	0.34514664
2008	48	2.22	-10.56	-1.29	0.58	197.9649123	113.6486708	37879	14.90514233	0.48495673
2008	49	8.89	-0.56	6.29	0.09	257.7403509	149.1559073	38029	15.03938201	0.73958468
2008	50	8.33	-4.44	4.82	0	295.9298246	268.2594484	38181	17.08131787	0.86935605
2008	51	-1.11	-10	-3.56	0	128.9964912	278.4670527	38334	15.31310964	0.69158705
2008	52	-3.89	-12.78	-6.33	0.01	106.4491228	408.2062515	38487	14.73346483	0.40224186
2008	53	-2.22	-12.78	-5.13	1.06	132.2526316	81.46348533	38642	15.47603998	-0.10690947
2008	54	-2.78	-5.56	-3.54	0.06	46.58245614	206.2048044	38798	14.75352497	-0.13284283
2008	55	1.67	-8.89	-1.24	0	172.5333333	423.5156852	38954	13.90656711	-0.05619302
2008	56	5	-8.89	1.18	0	247.7824561	333.055432	39111	14.24199134	-0.18711466
2008	57	2.78	-5	0.64	0.8	153.2701754	48.759836	39269	14.93255008	0.09627004
2008	58	1.67	-3.33	0.29	0	102.5754386	224.413843	39428	16.68279749	0.02411674
2008	59	-2.22	-11.67	-4.82	1.54	124.0421053	367.6338697	39587	16.66996833	0.18776879
2008	60	1.67	-12.22	-2.15	0.38	197.9789474	241.4387501	39747	15.84808564	-0.05002339
2008	61	1.67	-5.56	-0.32	0	135.3192982	267.2369008	39907	15.22015654	-0.40671166
2008	62	4.44	-5.56	1.69	0	200.9473684	350.9771139	40068	14.17807881	-0.28844299
2008	63	15.56	1.67	11.74	4.65	483.3684211	414.2868009	40230	13.86003224	-0.4686171
2008	64	7.78	1.67	6.1	1.32	176.9894737	20.58868093	40392	14.08419267	-0.23929509
2008	65	4.44	-2.78	2.46	0	162.1754386	93.01013439	40555	14.49647525	-0.07480648
2008	66	7.78	-2.78	4.88	1.4	257.2491228	421.6082568	40718	14.46778458	0.39983675
2008	67	7.22	-1.11	4.93	1.64	213.8035088	111.9551392	40882	16.16939781	0.51549117
2008	68	3.33	-7.22	0.43	0	192.8140351	38.96711007	41046	17.28308558	1.489979
2008	69	0	-6.67	-1.83	0	114.4140351	427.5723125	41210	16.07411213	1.48851502
2008	70	6.11	-3.89	3.36	0	223.8807018	307.5047976	41375	15.78125738	1.54289142
2008	71	6.11	1.11	4.74	0.01	136.2807018	266.7002889	41540	15.19018295	0.95541716
2008	72	4.44	-3.33	2.31	0	170.8210526	151.646709	41705	14.79667761	1.0382366
2008	73	13.33	-3.33	8.75	0.31	456.6035088	411.4743253	41870	14.5219003	2.0295602
2008	74	15	3.89	11.94	0.04	414.0701754	323.0455086	42036	14.34555766	1.83976565
2008	75	10	1.11	7.56	0	265.5368421	247.5309227	42202	15.0901155	2.92007832
2008	76	5.56	-3.89	2.96	0	208.5403509	163.6050793	42368	16.61247036	4.35226904
2008	77	7.78	-3.89	4.57	0.35	272.2807018	462.9329948	42534	15.83257402	4.71575436
2008	78	5.56	2.22	4.64	1.48	93.68421053	53.51101848	42701	15.38413654	3.37150701
2008	79	12.78	1.67	9.72	0	362.0140351	76.81797187	42867	14.8145218	3.88954679
2008	80	3.89	-2.78	2.06	0	147.677193	336.8751888	43033	14.4062046	3.47199878
2008	81	6.11	-2.78	3.67	1.19	207.922807	468.9779398	43200	14.22951207	4.29381441
2008	82	5.56	-6.11	2.35	0	235.8736842	285.277683	43366	14.00955028	4.14511587
2008	83	6.11	-5.56	2.9	0	244.554386	510.7787885	43533	13.65383265	4.19865571
2008	84	5.56	-4.44	2.81	0	216	376.0483535	43699	13.42314101	2.79009781
2008	85	9.44	-3.89	5.78	0	324.4350877	479.0154337	43865	15.04742938	2.84813416
2008	86	12.22	1.67	9.32	0.34	339.4175439	323.6223883	44032	14.8145218	2.41918802
2008	87	6.67	2.22	5.44	0.4	128.1684211	57.97117517	44198	14.4062046	3.7549652
2008	88	7.22	-2.78	4.47	0	240.3929825	70.15533215	44363	14.22951207	4.94685406
2008	89	7.22	-4.44	4.01	0	262.7508772	531.2154326	44529	14.00955028	4.35373302
2008	90	10	-4.44	6.03	0	348.8912281	497.9753216	44695	13.65383265	3.95438019
2008	91	13.33	4.44	10.89	0.16	325.3473684	225.2769728	44860	13.42314101	3.947374
2008	92	21.11	1.11	15.61	0	779.5157895	172.8890394	45025	13.29799837	4.62456932
2008	93	8.33	-2.78	5.28	0.16	274.5263158	466.8634875	45190	14.90418614	5.57082325
2008	94	9.44	-2.22	6.24	0.8	302.6736842	317.4336773	45354	16.08213778	5.3953
2008	95	11.67	3.33	9.38	0.13	281.5789474	112.3247726	45518	16.32424304	5.7571
2008	96	12.22	4.44	10.08	0	277.5157895	277.5338981	45681	15.92879496	6.9152
2008	97	15	4.44	12.1	0	401.4596491	405.2141564	45845	15.62367405	7.34
2008	98	8.33	5.56	7.57	0	94.65263158	126.1629535	46007	15.45553749	6.8906
2008	99	14.44	6.11	12.15	0	332.6807018	261.7510234	46169	15.41855314	7.3973
2008	100	16.11	6.11	13.36	0	414.5754386	256.6507954	46331	15.36819752	8.5416
2008	101	20.56	6.67	16.74	0.88	649.7052632	479.4604878	46492	15.89479781	10.0367
2008	102	20	11.67	17.71	0.05	459.0105263	143.7465115	46653	16.68697419	10.6805
2008	103	18.33	3.89	14.36	0.24	581.7052632	457.5626642	46813	16.17858159	11.3124
2008	104	8.33	0.56	6.19	0	218.6315789	169.5090905	46972	15.92851047	8.9658
2008	105	10.56	-2.22	7.04	0	340.6947368	401.2751692	47131	15.67986182	7.8339
2008	106	15	0	10.88	0	484.5333333	561.5878957	47289	15.45596423	8.131
2008	107	20	2.22	15.11	0	701.6982456	552.2627197	47446	15.29166836	8.9395
2008	108	26.11	7.22	20.92	0	1022.021053	554.4629847	47602	15.19977647	10.3329
2008	109	28.33	10.56	23.44	0	1130.484211	537.8415763	47758	14.97545214	12.0038
2008	110	27.22	12.22	23.1	3.33	984.1192982	416.5839038	47912	16.56748628	12.4873
2008	111	15.56	12.78	14.79	0.03	144.8140351	114.7453709	48066	16.8579557	11.9807
2008	112	21.11	11.67	18.51	0	532.8070175	275.9571123	48219	16.4268035	12.5455
2008	113	22.22	10	18.86	0	666.6666667	413.340583	48370	16.1010567	13.0997
2008	114	23.89	10.56	20.22	0	768.9403509	420.1529441	48521	15.85582199	13.3695
2008	115	22.22	11.11	19.17	0	629.8245614	519.813544	48671	15.50233692	13.5077
2008	116	25	11.11	21.18	2.54	836.3719298	386.4334788	48819	16.24074375	13.3095
2008	117	27.22	10.56	22.64	0	1034.203509	392.209431	48966	17.08839667	14.6146
2008	118	19.44	7.22	16.08	2.13	568.5824561	410.8230982	49112	17.56691729	14.5117
2008	119	11.11	5	9.43	0	217.0666667	85.5561443	49257	16.71841089	11.7244
2008	120	13.89	2.78	10.83	0	387.2912281	439.6441772	49401	16.11144076	11.3145
2008	121	12.22	3.33	9.78	0	304.245614	404.569364	49543	15.73064418	10.1017
2008	122	15	3.89	11.94	0	414.0701754	256.0311173	49683	15.69223735	9.5681
2008	123	23.33	9.44	19.51	1.33	761.6350877	312.3472894	49823	16.21030278	11.5045
2008	124	19.44	10	16.85	0.15	484.7017544	286.4218775	49960	17.19394432	13.0122
2008	125	16.67	2.78	12.85	0	516.7719298	382.8252355	50096	16.48711644	12.482
2008	126	20.56	5.56	16.43	0	674.7789474	539.717107	50231	16.07004674	12.2118
2008	127	22.78	8.33	18.81	0	752.9473684	415.900959	50363	15.71328998	12.5585
2008	128	26.11	12.78	22.44	0.21	870.1122807	487.7954253	50495	15.3149757	12.228
2008	129	21.11	6.67	17.14	0.99	684.2807018	207.1066688	50624	16.22281377	13.45393727
2008	130	12.22	7.78	11	0	179.5649123	103.0653977	50751	17.03011786	12.42737358
2008	131	18.33	6.67	15.12	0.28	518.9263158	380.0835348	50877	15.73273983	11.92313704
2008	132	16.11	1.11	11.99	2.12	518.3789474	223.787451	51000	14.87353594	11.17284729
2008	133	10	2.22	7.86	0	242.4	136.5087242	51122	14.42999687	9.69537776
2008	134	22.22	7.22	18.1	0.12	743.0105263	573.336625	51241	14.29552394	10.69192986
2008	135	21.67	10	18.46	0.01	628.645614	286.9728961	51358	15.49796619	11.40718866
2008	136	22.78	8.89	18.96	1.32	738.0280702	412.6879141	51473	16.53059699	12.67593647
2008	137	11.11	5.56	9.58	0.25	201.5017544	64.68117319	51586	15.23333558	11.70092579
2008	138	18.89	6.67	15.53	0.37	550.5192982	215.1321547	51697	14.61555318	11.0330372
2008	139	15.56	4.44	12.5	0.05	428.0421053	236.0624843	51805	14.42999687	10.98326188
2008	140	12.78	4.44	10.49	0.98	301.1508772	337.4939703	51910	14.29552394	10.40959086
2008	141	12.78	6.11	10.94	0.47	256.322807	149.0528896	52014	15.49796619	9.8043397
2008	142	15	6.11	12.56	0.12	359.3473684	291.2318379	52114	16.72623451	9.81071847
2008	143	13.33	6.67	11.5	0	264.9403509	377.579158	52212	16.37559439	10.479
2008	144	18.89	6.11	15.38	0	564.2736842	488.9290166	52308	16.03576509	10.6269
2008	145	21.67	6.11	17.39	0	731.9578947	530.3457634	52400	15.64316196	11.6237
2008	146	23.89	9.44	19.92	0	801.9157895	583.9905125	52490	15.31158301	12.2053
2008	147	29.44	13.89	25.17	0	1131.242105	490.009624	52577	15.02097135	13.4837
2008	148	27.22	7.22	21.72	0	1109.866667	328.5980403	52662	14.35383052	15.0449
2008	149	19.44	6.11	15.78	0	596.3157895	585.2339268	52743	13.7381833	13.4458
2008	150	24.44	8.33	20.01	0	871.8105263	570.3446546	52821	13.21257874	12.6826
2008	151	26.11	12.22	22.29	0.22	889.5859649	459.8854545	52896	13.12481203	13.0731
2008	152	27.22	17.78	24.62	0	745.4877193	352.9051143	52969	12.80532412	14.474
2008	153	25.56	10	21.28	0	913.1789474	486.2564576	53038	11.80902256	15.1535
2008	154	25	13.33	21.79	1.03	757.5298246	542.0388867	53103	11.15909368	14.1676
2008	155	27.78	15	24.26	1.13	930.4982456	379.1178573	53166	14.22765698	14.4187
2008	156	21.11	17.78	20.19	0	232.4	90.04834194	53225	16.57715911	15.2372
2008	157	28.33	19.44	25.89	0	758.1894737	345.9921548	53281	15.94586466	16.6388
2008	158	32.78	20.56	29.42	0	1181.515789	525.1338733	53334	15.09195286	18.3381
2008	159	33.33	23.33	30.58	0	1067.480702	518.1060825	53383	14.01400122	18.9319
2008	160	32.22	22.78	29.62	0	969.2842105	429.2805031	53429	12.61585044	19.439
2008	161	33.89	21.67	30.53	1.2	1251.333333	544.4346842	53471	11.53889453	19.7055
2008	162	32.22	15.56	27.64	0	1357.122807	410.0632218	53510	11.80688884	19.1786
2008	163	28.33	16.11	24.97	0	934.1684211	575.5212714	53546	10.84429994	18.2842
2008	164	30.56	17.78	27.04	0.04	1079.873684	545.3852399	53577	9.865210323	18.0608
2008	165	31.67	19.44	28.31	0.07	1115.017544	437.034623	53606	9.245437919	18.3035
2008	166	25	15.56	22.4	0	661.0736842	181.2395301	53630	8.628652713	18.4647
2008	167	27.22	16.67	24.32	1.49	803.0315789	548.206464	53651	8.497216013	18.1114
2008	168	26.67	13.89	23.15	0.01	875.8596491	355.7539921	53669	12.18228002	17.3479
2008	169	19.44	13.33	17.76	0.14	352.6877193	299.6079692	53682	10.66478358	15.8738
2008	170	18.89	8.89	16.14	0	487.4385965	230.6295793	53693	9.712009754	14.9981
2008	171	20	11.11	17.56	0	480.1614035	342.9473361	53699	8.975878886	14.2679
2008	172	26.11	13.33	22.6	0.22	849.5789474	471.4200588	53702	8.237898801	15.091
2008	173	28.33	15	24.67	0.81	982.3789474	515.138638	53701	10.60333266	16.1344
2008	174	26.67	15.56	23.61	0.11	805.2491228	539.7242811	53696	9.512436497	17.0247
2008	175	25.56	12.78	22.04	0	823.9719298	482.1374236	53688	8.51622028	16.8817
2008	176	25	13.33	21.79	0	757.5298246	423.956815	53676	9.799136354	16.26958909
2008	177	27.22	15	23.86	0.19	879.6982456	441.7024282	53661	10.84879496	16.56625418
2008	178	28.33	18.33	25.58	1.16	822.3719298	305.0543614	53641	9.799136354	17.48824787
2008	179	26.67	19.44	24.68	0	595.7403509	276.8843134	53619	8.656390977	18.06976164
2008	180	28.89	18.89	26.14	0.13	847.0035088	350.0097029	53592	8.127514733	19.1657
2008	181	27.22	17.22	24.47	0.05	774.9263158	308.2490012	53562	7.388396667	18.4267
2008	182	25.56	15.56	22.81	0	708.1122807	417.4633376	53529	6.651412315	18.1809
2008	183	22.78	13.33	20.18	0	584.9122807	300.6619244	53491	5.977301362	17.3705
2008	184	27.22	15	23.86	0.02	879.6982456	560.1282857	53451	5.407315586	17.0144
2008	185	25.56	18.33	23.57	0.02	561.3684211	231.8553748	53407	5.127372485	16.9899
2008	186	23.89	17.78	22.21	2.12	450.7157895	199.8697127	53359	4.925523268	17.2932
2008	187	24.44	16.11	22.15	0	587.5438596	256.6897839	53308	5.210871774	17.5128
2008	188	27.78	17.22	24.88	0.01	827.3754386	370.6546738	53254	5.511014022	18.163
2008	189	27.22	18.89	24.93	0	682.4421053	297.1433942	53196	5.621113595	18.9042
2008	190	30.56	18.89	27.35	0.44	1022.140351	501.4656629	53135	6.387400935	19.4783
2008	191	26.67	16.11	23.76	0	779.2982456	190.4580091	53071	6.72367405	19.3417
2008	192	26.67	15	23.46	0	829.9649123	565.0716361	53004	5.92139809	18.8821
2008	193	28.33	16.67	25.12	0	908.1964912	471.9697353	52933	5.401910181	18.3417
2008	194	31.11	19.44	27.9	0.33	1052.449123	520.0338063	52860	5.08825442	19.2777
2008	195	27.78	17.22	24.88	0	827.3754386	355.3178675	52783	4.724527535	19.9216
2008	196	26.67	15.56	23.61	0	805.2491228	522.2584862	52703	4.194086568	19.2785
2008	197	28.33	16.11	24.97	0	934.1684211	560.3976055	52620	3.845722414	18.4115
2008	198	31.11	17.22	27.29	0	1166.105263	557.7513277	52535	3.65112782	18.6985
2008	199	31.67	20	28.46	0.12	1083.508772	438.8623918	52446	3.504470636	19.5131
2008	200	32.22	21.11	29.17	0	1081.25614	413.3001242	52355	3.35397277	20.2552
2008	201	31.67	20	28.46	0.39	1083.508772	517.5354854	52261	3.102336923	20.5619
2008	202	32.22	18.89	28.56	0.38	1208.421053	409.5625719	52164	3.091952855	20.1119
2008	203	29.44	18.33	26.39	0.02	934.6666667	405.7065783	52065	3.715565942	20.2837
2008	204	28.89	19.44	26.29	1.3	814.6315789	414.7642553	51963	7.932635643	20.2132
2008	205	23.33	15	21.04	1.03	552.8491228	134.2814223	51858	11.84316196	19.136
2008	206	25	14.44	22.1	0	711.6350877	347.1107418	51751	9.215992684	18.1667
2008	207	27.78	15.56	24.42	0	906.5894737	534.5950002	51642	8.049705344	18.37113238
2008	208	28.33	18.33	25.58	0	822.3719298	433.7922375	51530	7.548282869	18.89419152
2008	209	27.22	15.56	24.01	0	855.3824561	487.9174592	51417	6.725665515	18.8648
2008	210	28.89	17.22	25.68	0	935.6210526	493.0210721	51300	5.585124975	18.6252
2008	211	30	17.78	26.64	0.52	1021.207018	475.7485444	51182	4.627372485	19.1446
2008	212	29.44	18.33	26.39	0	934.6666667	331.2877091	51062	4.416846169	19.0567
2008	213	28.89	17.78	25.83	0	907.4596491	465.3030487	50939	4.026661248	19.8767
2008	214	28.33	18.89	25.74	0.01	791.0035088	488.1866181	50815	3.555821987	19.5757
2008	215	27.78	16.11	24.57	0	881.4526316	403.8918087	50688	3.013574477	19.5663
2008	216	25.56	15	22.65	0	733.6140351	401.7587619	50560	2.633489128	18.7858
2008	217	27.78	16.67	24.72	0.1	855.0596491	479.2455879	50430	2.453119285	18.5592
2008	218	24.44	19.44	23.07	0.39	394.4982456	146.635572	50298	2.470757976	18.8745
2008	219	28.89	16.67	25.53	0.05	962.4561404	530.552428	50164	2.347144889	19.74
2008	220	26.67	14.44	23.31	0.1	853.4947368	348.5250954	50029	2.149989839	18.6009
2008	221	23.89	12.22	20.68	0	712.2807018	435.3575924	49892	2.001341191	17.7787
2008	222	24.44	13.89	21.54	0.02	690.2175439	512.9065603	49754	1.877301362	17.4636
2008	223	25	14.44	22.1	0.04	711.6350877	470.5948724	49614	1.702052428	17.3252
2008	224	21.67	14.44	19.68	0	453.9789474	312.5321596	49472	1.639179029	16.938
2008	225	24.44	12.78	21.24	0.55	734.6105263	409.6248125	49330	1.534911603	17.2758
2008	226	27.78	13.89	23.96	0	974.7929825	429.6788924	49186	1.597358261	17.4137
2008	227	25.56	15.56	22.81	0	708.1122807	329.5958401	49040	1.660089413	17.7577
2008	228	25.56	12.78	22.04	0	823.9719298	440.5088354	48894	1.545864662	17.6398
2008	229	25.56	14.44	22.5	0	757.9157895	485.5606204	48746	1.482706767	17.2314
2008	230	27.22	15	23.86	0	879.6982456	479.3240941	48597	1.299918716	17.4301
2008	231	29.44	17.22	26.08	0	991.4596491	519.4066383	48446	1.868382443	17.5426
2008	232	26.11	10	21.68	0	957.4807018	374.7148773	48295	1.751753709	18.17088083
2008	233	25.56	11.11	21.58	0	880.4421053	558.3377853	48143	1.576810608	17.2790033
2008	234	29.44	12.78	24.86	0	1168.575439	536.697562	47990	1.460181874	16.8994142
2008	235	30	16.11	26.18	0	1099.087719	528.263379	47836	1.307164975	18.09924264
2008	236	27.78	17.78	25.03	0	798.3508772	487.5682976	47681	1.223192286	18.1656
2008	237	31.11	18.89	27.75	0.13	1082.968421	468.8788006	47525	1.635124975	17.8722
2008	238	27.78	12.78	23.65	0.256919669	1014.603509	525.5087823	47368	2.801412315	19.12476837
2008	239	26.11	13.33	22.6	0	849.5789474	521.6431053	47210	4.550843325	17.93329779
2008	240	26.67	13.89	23.15	1.931221361	875.8596491	430.7492561	47052	6.300274334	18.0577
2008	241	17.78	15.56	17.17	0.154643927	133.9719298	84.78493592	46893	6.45511075	16.794
2008	242	21.11	16.67	19.89	0.019685469	298.2175439	151.1140497	46734	6.041028246	17.1087
2008	243	27.22	12.22	23.1	0	984.1192982	303.0324007	46573	5.526376753	18.1899
2008	244	27.22	13.33	23.4	0	945.6491228	536.7217159	46413	4.970900224	17.8624
2008	245	26.67	12.78	22.85	0	917.2561404	540.0980303	46251	4.411725259	17.6892
2008	246	29.44	14.44	25.32	0	1110.919298	528.1481265	46089	3.941028246	17.7469
2008	247	30.56	15.56	26.43	0	1179.347368	507.259673	45927	3.449278602	18.3305
2008	248	31.67	16.11	27.39	0	1274.596491	481.1607814	45764	2.993517578	18.6708
2008	249	31.11	20.56	28.21	0.318008268	986.9403509	451.3041667	45600	2.578012599	19.4007
2008	250	22.78	12.78	20.03	0	607.6070175	102.935339	45437	2.334200366	18.9658
2008	251	25	13.89	21.94	0	735.1508772	420.2074571	45272	2.004186141	18.3761
2008	252	26.67	13.89	23.15	2.472082587	875.8596491	477.720094	45108	1.785267222	17.8399
2008	253	20	9.44	17.1	0.025357557	537.7473684	103.7893554	44943	1.966632798	17.4103
2008	254	21.11	10.56	18.21	0	572.877193	485.4580151	44778	2.16193863	16.3868
2008	255	20.56	13.33	18.57	2.352550719	426.7087719	303.217672	44613	6.055252997	15.9576
2008	256	21.11	18.33	20.35	0.222390424	197.4105263	84.06061151	44447	11.45240805	17.0314
2008	257	24.44	19.44	23.07	0.011863613	394.4982456	200.9966803	44281	11.39109937	18.3756
2008	258	29.44	18.89	26.54	0	904.1824561	374.1760172	44115	10.91528145	19.8711
2008	259	22.78	11.67	19.72	0	649.7964912	298.3259232	43949	10.23405812	19.2716
2008	260	20	9.44	17.1	0	537.7473684	226.0229313	43783	9.838610039	16.6902
2008	261	23.33	10	19.67	0	745.277193	475.0160029	43617	9.509591546	16.124
2008	262	21.11	7.78	17.44	0	656.7087719	442.9891369	43450	9.050701077	16.2686
2008	263	20.56	8.33	17.19	0	606.2245614	419.7895989	43284	8.783133509	15.258
2008	264	21.11	10	18.06	0	591.4526316	409.7163764	43117	8.575594391	15.3201
2008	265	24.44	10	20.47	0	827.4035088	407.9027962	42951	8.355821987	15.7372
2008	266	19.44	7.78	16.24	0	553.522807	190.3744858	42784	8.078439342	15.6573
2008	267	21.11	8.89	17.75	0	625.8315789	410.743606	42618	7.783844747	15.1397
2008	268	23.33	9.44	19.51	0	761.6350877	461.1823942	42452	7.471611461	15.0747
2008	269	20.56	11.11	17.96	0.003747898	516.3438596	365.7231471	42286	7.227941475	15.1447
2008	270	17.78	12.22	16.25	0.523215553	297.5859649	85.06794872	42120	7.429221703	15.1131
2008	271	21.11	16.67	19.89	2.148666677	298.2175439	146.5197597	41954	10.3522658	16.3412
2008	272	22.22	13.89	19.93	0	519.9087719	216.5280942	41788	11.72196708	17.3847
2008	273	20.56	10	17.65	0.053687621	555.0736842	270.7031689	41623	11.44572241	16.8216
2008	274	18.33	10	16.04	0.125669315	417.4245614	189.9629987	41458	11.70973379	15.1265
2008	275	15.56	8.33	13.57	0.004633213	320.5614035	173.7329329	41293	11.91428571	14.3559
2008	276	12.78	8.33	11.56	0.021512976	185.5578947	241.5923071	41129	11.6663483	13.2974
2008	277	15	5	12.25	0.245488242	388.154386	164.1662924	40964	11.95653322	12.5663
2008	278	14.44	6.11	12.15	0.10475532	332.6807018	231.4760913	40801	12.0891079	11.9124
2008	279	16.67	7.78	14.22	0	396.3438596	416.6164825	40637	11.8750254	12.4765
2008	280	16.67	2.22	12.69	0	526.7087719	375.476627	40474	11.51983337	12.2566
2008	281	16.67	2.78	12.85	0.034555732	516.7719298	432.2290881	40312	11.43704532	11.5181
2008	282	16.67	7.22	14.07	0.052800421	412.7508772	218.5872478	40150	11.76108515	11.6013
2008	283	21.67	8.89	18.15	0	662.4070175	389.0816224	39989	11.64045926	13.8881
2008	284	21.11	6.11	16.99	0	696.8982456	422.8133725	39828	11.42794148	13.4292
2008	285	21.11	5.56	16.83	0	708.7719298	416.9137066	39667	11.31385897	12.8417
2008	286	22.78	7.78	18.65	0	767.0315789	407.251139	39508	11.21001829	13.0899
2008	287	25	8.89	20.57	0	899.6140351	307.6376782	39349	11.14614916	13.3288
2008	288	26.11	8.89	21.37	0.003419935	985.8385965	340.0631778	39191	11.21926438	13.8845
2008	289	23.33	12.78	20.43	0.012276874	649.0245614	314.6322343	39033	11.15425726	15.3048
2008	290	20	8.89	16.94	0.060760695	555.0877193	96.48724149	38876	10.79693152	15.1681
2008	291	12.22	2.78	9.62	0	316.6035088	154.1217459	38720	10.4435887	12.6492
2008	292	10.56	-1.11	7.35	0	324.5192982	289.662077	38565	10.22822597	10.8618
2008	293	11.67	-1.11	8.15	0	365.1789474	411.4896254	38411	10.05112782	10.1693
2008	294	16.11	-0.56	11.53	0.021685473	541.9649123	367.0695802	38258	9.990957123	9.7247
2008	295	10.56	2.78	8.42	0	250.8	217.2820028	38106	9.910445031	9.9721
2008	296	9.44	0.56	7	0	256.554386	281.3326044	37955	9.752123552	9.794
2008	297	12.22	0.56	9.01	0	359.8245614	390.2720612	37804	9.635765088	9.366
2008	298	13.89	6.67	11.9	2.518724922	290.6175439	167.6808392	37655	12.27886608	9.2389
2008	299	14.44	3.33	11.39	0	400.4912281	43.15066521	37507	12.8181264	10.5562
2008	300	16.67	3.89	13.15	0.048908441	494.9824561	364.9315329	37361	12.55041658	10.0671
2008	301	8.89	3.89	7.51	0.039355786	161.8526316	251.9830713	37215	12.26108515	10.1711
2008	302	6.67	1.11	5.14	0.224549745	153.4105263	98.94246176	37071	12.52267832	8.7834
2008	303	4.44	-0.56	3.07	0.009507193	122.6666667	103.6515923	36928	13.03434261	6.9604
2008	304	8.89	-0.56	6.29	0	257.7403509	369.0951695	36787	12.76293436	7.2237
2008	305	18.33	3.33	14.21	0	592.1684211	351.7090076	36647	12.72481203	8.0435
2008	306	17.78	4.44	14.11	0	540.7368421	231.4742118	36509	12.53861004	9.8974
2008	307	9.44	3.89	7.92	0.00872804	182.1403509	187.2377103	36372	12.42267832	9.3421
2008	308	14.44	7.22	12.46	0.01	300.322807	258.375031	36237	12.35809795	9.6882
2008	309	13.89	8.89	12.51	0	218.3298246	100.4017395	36103	12.45511075	10.2465
2008	310	18.33	8.89	15.74	0	454.7368421	257.0485669	35971	12.45283479	11.4036
2008	311	20	10	17.25	0	519.4947368	242.4719176	35841	12.47701687	12.2528
2008	312	21.67	9.44	18.31	0.24	645.9719298	308.8003248	35713	12.73092867	12.8647
2008	313	12.78	4.44	10.49	0	301.1508772	134.4137582	35586	12.60546637	11.7124
2008	314	8.33	1.67	6.5	0	195.6070175	146.6516271	35462	12.37303394	9.4715
2008	315	3.89	0.56	2.97	0	84.36491228	155.6687512	35339	12.21841089	8.0038
2008	316	4.44	0	3.22	0.07	111.4736842	123.6229308	35219	12.14572241	7.2899
2008	317	10	0.56	7.4	1.44	276.2175439	228.2574359	35100	13.58711644	7.7467
2008	318	8.89	5.56	7.97	0.01	115.0035088	38.74857078	34984	13.6893924	8.0058
2008	319	11.67	8.33	10.75	0.58	135.8245614	94.88379696	34870	14.27474091	9.2228
2008	320	13.33	2.22	10.28	0.05	374.4701754	41.89573923	34759	13.83775655	9.9955
2008	321	5	0.56	3.78	0.04	115.4596491	114.7539612	34649	13.54401544	7.6199
2008	322	2.78	-3.89	0.94	0	137.4175439	119.3574779	34542	13.32239382	6.2385
2008	323	-0.56	-6.67	-2.24	0	103.4105263	215.6341251	34438	13.07317618	4.6741
2008	324	0	-5.56	-1.53	0	99.83157895	222.922472	34336	13.01855314	3.8293
2008	325	3.89	-2.78	2.06	0.15	147.677193	126.9326752	34237	12.99053038	4.278
2008	326	-1.11	-6.67	-2.64	0	92.70175439	141.2762742	34140	12.98811217	3.8473
2008	327	-1.67	-6.11	-2.89	0	74.85614035	179.2016683	34046	13.06720179	2.9211
2008	328	2.78	-6.67	0.18	1.34	173.9508772	289.8008482	33954	12.8549685	2.9761
2008	329	2.22	-5.56	0.08	0.33	147.7754386	81.5214079	33866	13.10162569	2.7147
2008	330	3.89	0	2.82	0	96.26666667	162.728952	33780	13.62125584	3.2445
2008	331	1.67	0	1.21	0	39.15789474	90.9198445	33697	14.02395855	3.4653
2008	332	5.56	-2.22	3.42	0	183.4526316	263.3917544	33618	13.81926438	3.6899
2008	333	5.56	-1.11	3.72	0	164.3087719	229.6326884	33541	15.04742938	3.3721
2008	334	5.56	-3.33	3.11	1.09	200.645614	268.2057549	33467	14.58091445	4.21277266
2008	335	3.89	0	2.82	0.05	96.26666667	25.89807468	33397	14.34765698	3.77012785
2008	336	6.11	0	4.43	0	159.4596491	120.3406043	33329	14.11439951	4.24236597
2008	337	2.22	-5	0.24	0	140.3578947	121.3659402	33265	13.76451331	4.04870233
2008	338	6.67	-4.44	3.61	0	246.7719298	271.7797253	33204	13.53125584	3.56109242
2008	339	7.78	-3.89	4.57	0	272.2807018	29.142883	33146	13.18136964	4.17042181
2008	340	-1.67	-8.33	-3.5	0	102.2736842	141.4201015	33092	12.82737249	1.3956
2008	341	-1.67	-8.33	-3.5	0.03	102.2736842	134.0420084	33041	12.77132697	1.2086
2008	342	-3.89	-9.44	-5.42	0	76.76491228	144.8592732	32993	12.57317618	0.9196
2008	343	-1.11	-8.89	-3.25	0.04	118.2526316	78.60147501	32949	12.48839667	1.4635
2008	344	11.67	-2.22	7.85	1.43	380.6105263	176.9446656	32909	14.4148547	4.2276
2008	345	12.22	-1.11	8.56	2.17	386.2526316	30.39005841	32872	14.90532412	3.7039
2008	346	1.67	-1.11	0.9	0.34	62.37894737	20.18929289	32838	14.75695997	3.1025
2008	347	1.67	-6.11	-0.47	0	142.4561404	76.9372714	32808	14.0780126	1.9723
2008	348	-0.56	-6.11	-2.08	0	96.21052632	241.9216033	32782	13.89664702	2.3513
2008	349	9.44	-1.67	6.39	0.28	294.477193	251.2587381	32759	13.9777281	4.2423
2008	350	13.89	-1.67	9.61	0.64	459.7824561	70.74098962	32740	14.01172526	3.6782
2008	351	1.11	-2.22	0.19	0.73	70.59649123	68.16776678	32724	13.98555172	3.1329
2008	352	3.33	-0.56	2.26	0	92.91929825	40.82190022	32712	14.26435684	3.2908
2008	353	2.22	-0.56	1.46	3.2	64.64561404	88.91077544	32704	14.7465759	2.7777
2008	354	5.56	-4.44	2.81	0	216	15.4468944	32699	14.42424304	2.3257
2008	355	-2.78	-5.56	-3.54	0.12	46.58245614	137.640712	32698	14.20845357	1.6066
2008	356	1.67	-15.56	-3.07	0	214.0280702	182.3404789	32701	13.55511075	0.5447
2008	357	-7.78	-14.44	-9.61	0	66.78596491	261.2881035	32707	12.85880919	0.0158
2008	358	1.11	-11.11	-2.25	3.65	179.6561404	149.4164502	32717	14.79038813	0.3827
2008	359	9.44	-0.56	6.69	0	276.5824561	44.81274633	32731	14.90760008	0.3909
2008	360	0	-5.56	-1.53	0.23	99.83157895	173.5758649	32749	14.46307661	0.7944
2008	361	2.78	-4.44	0.79	0.13	145.5578947	183.3182179	32770	15.02452754	1.4542
2008	362	9.44	0	6.85	0.01	266.8421053	127.746539	32794	14.66193863	2.2009
2008	363	12.22	0	8.86	0	369.1719298	142.5615136	32822	14.47886608	2.5531
2008	364	6.67	-1.11	4.53	0	196.8912281	258.5131795	32854	14.26264987	2.4567
2008	365	3.89	-1.11	2.51	0.08	118.4	262.1079996	32889	14.05255029	1.7015
2009	1	1.67	-9.44	-1.39	0	264.1864349	155.0455539	32928	13.6235318	0.6993
2009	2	-1.67	-9.44	-3.81	0	252.0662643	277.2813078	32971	13.52196708	1.0467
2009	3	5.56	-5.56	2.5	0	338.4527851	154.4734834	33017	13.5438732	0.8682
2009	4	1.11	-7.78	-1.33	0	169.1340428	250.4367628	33066	13.30134119	0.9545
2009	5	3.89	-7.22	0.83	0.01	266.6382496	130.8097467	33119	13.4866897	1.7267
2009	6	3.89	-3.33	1.9	0.83	227.4430348	186.7836925	33175	13.33647633	1.2145
2009	7	0	-3.33	-0.92	1.44	50.3711006	35.42534754	33234	14.2064621	1.1963
2009	8	2.22	-3.33	0.69	0	165.2672999	35.77024267	33296	14.59451331	0.8092
2009	9	-2.22	-5.56	-3.14	0	139.4944835	142.8110425	33362	13.99963422	0.5152
2009	10	-2.78	-5.56	-3.54	1.05	49.44759858	211.1762735	33431	13.57687462	0.6086
2009	11	-0.56	-5.56	-1.93	0	108.3172789	52.56209892	33503	13.65866694	0.5707
2009	12	-3.33	-6.11	-4.1	0	119.1433274	124.0813008	33579	13.6522658	0.5672
2009	13	-0.56	-6.67	-2.24	0	110.799546	187.169623	33657	13.5435887	0.6694
2009	14	0.56	-12.78	-3.11	0.18	98.79150683	92.89187267	33738	13.38555172	0.4134
2009	15	-7.78	-13.33	-9.31	0.07	98.60923509	191.2382177	33822	13.22495428	0.4423
2009	16	-8.89	-17.22	-11.18	0	94.76454865	195.8472972	33909	13.03704532	0.187
2009	17	-13.33	-18.89	-14.86	0.01	68.80729022	272.8107297	33999	12.73149766	0.2013
2009	18	-6.67	-19.44	-10.18	0.26	44.73166455	213.4915229	34092	12.555253	0.3135
2009	19	-3.33	-7.78	-4.56	0	102.9768209	115.1936116	34187	12.5809998	0.3012
2009	20	-4.44	-12.22	-6.58	0	118.3555004	198.6965145	34285	12.63946352	0.3069
2009	21	-3.89	-12.78	-6.33	0	155.8506765	153.4316873	34386	12.61798415	0.1377
2009	22	-4.44	-12.78	-6.74	0	150.5775132	254.0363014	34489	12.53832554	0.1823
2009	23	4.44	-5.56	1.69	0	233.9671771	303.8885966	34595	13.67488315	0.3783
2009	24	10.56	-2.78	6.89	0.004	438.592215	286.1560672	34703	14.8923796	0.0462
2009	25	-1.11	-12.78	-4.32	0.018	108.7026327	191.2816683	34814	13.75340378	-0.1397
2009	26	-7.22	-12.78	-8.75	0.001	107.2715216	133.0920804	34926	12.71200975	-0.4642
2009	27	-2.78	-10.56	-4.92	0.24	153.6160651	253.7081217	35042	12.57986182	-0.4003
2009	28	-2.78	-6.67	-3.85	1.14	67.40931715	137.0974146	35159	12.52751473	-0.3602
2009	29	1.67	-8.33	-1.08	0.004	211.3752309	56.87618346	35278	12.59664702	-0.4194
2009	30	-0.56	-8.33	-2.69	0.089	154.5088648	275.4467797	35400	12.74984759	-0.365
2009	31	0	-11.11	-3.06	0.001	203.5899768	196.1663711	35523	12.66037391	-0.3975
2009	32	-1.11	-11.67	-4.01	0	164.3049002	324.5517125	35649	12.85667547	-0.2398
2009	33	9.44	-1.11	6.54	0.06	152.2796808	331.9759895	35776	14.06577931	-0.1387
2009	34	3.89	-4.44	1.6	0.067	147.6905964	70.00790976	35905	14.53875229	-0.2601
2009	35	1.67	-8.89	-1.24	0.029	176.1774139	253.5008048	36036	14.44486893	-0.232
2009	36	-3.89	-16.11	-7.25	0	147.1429927	217.5034422	36169	13.88114204	-0.6465
2009	37	-7.22	-15.56	-9.51	0	139.7014676	362.013222	36303	13.81428571	-0.5518
2009	38	3.33	-8.33	0.12	0	237.8874798	360.4623765	36440	14.39394432	0.028
2009	39	12.78	-2.78	8.5	0	419.5200398	217.6037947	36577	15.10546637	-0.394
2009	40	10.56	-2.22	7.04	0	386.0580639	216.7615209	36716	14.8208291	-0.0532
2009	41	7.22	-2.22	4.62	0.158	200.2813618	341.0010853	36857	14.85084332	0.6116
2009	42	10	2.78	8.01	0.258	279.2561642	85.07354253	36999	15.13348913	3.2096
2009	43	16.67	5	13.46	0	600.4362025	260.6041515	37143	15.26023166	3.4667
2009	44	6.11	1.11	4.74	0.003	318.3311801	86.93394481	37287	14.76620606	2.1164
2009	45	2.22	-0.56	1.46	0.112	167.2721316	72.22969038	37433	14.54273522	1.8728
2009	46	0.56	-5	-0.97	0	227.6195056	123.0332881	37581	14.46791303	1.8324
2009	47	2.22	-5.56	0.08	0	272.1943102	351.0557396	37729	14.24671815	1.4489
2009	48	0.56	-7.78	-1.74	0	236.7528368	228.1077114	37879	13.99792725	1.0477
2009	49	3.33	-7.78	0.28	0.63	161.2265878	385.4023245	38029	13.89408657	0.9631
2009	50	4.44	-1.67	2.76	0.134	194.6061353	38.35342186	38181	14.86037391	0.7846
2009	51	2.22	-8.89	-0.83	0.007	251.1921475	190.9096885	38334	14.23761431	0.3255
2009	52	-3.89	-8.89	-5.26	0	223.1231013	225.5153169	38487	13.88043081	0.2299
2009	53	3.33	-7.22	0.43	0.102	260.7307378	391.3288132	38642	14.24117049	0.1412
2009	54	0	-6.67	-1.83	0.041	229.8927661	202.9565957	38798	13.9178419	0.1189
2009	55	-3.89	-11.11	-5.87	0	188.3726894	209.4387226	38954	13.50560862	-0.1918
2009	56	-0.56	-11.11	-3.46	0	249.314548	429.0285597	39111	13.56990449	0.1706
2009	57	8.33	-7.22	4.06	0.015	428.006074	414.2311747	39269	13.98697419	1.6315
2009	58	12.78	2.78	10.03	0.745	279.7922266	197.8326063	39428	14.73363138	2.6647
2009	59	12.78	-3.89	8.19	0	487.0341169	86.0709829	39587	14.97644788	2.5399
2009	60	1.67	-4.44	-0.01	0	345.0601914	354.4487634	39747	14.6579557	2.3802
2009	61	3.89	-8.33	0.53	0	354.7241505	289.1103315	39907	14.30930705	1.2231
2009	62	-5.56	-13.89	-7.85	0	201.4583111	340.3241739	40068	13.75695997	0.2969
2009	63	-2.22	-13.89	-5.43	0.002	249.8397379	454.3288839	40230	13.55013209	0.17
2009	64	2.78	-11.11	-1.04	0.007	353.4684994	460.430506	40392	13.61115627	1.0508
2009	65	11.67	-7.22	6.47	0	543.6752737	439.2025151	40555	13.95994717	3.753
2009	66	20	8.33	16.79	0.005	744.2677937	296.3650474	40718	14.10873806	6.2834
2009	67	21.67	12.78	19.22	1.255	457.0879083	174.0303801	40882	14.70845357	7.2016
2009	68	15	6.11	12.56	0.094	356.2603444	44.59771963	41046	15.42097135	6.0916
2009	69	10	1.67	7.71	0.069	242.4558126	118.2215482	41210	14.88427149	4.6673
2009	70	7.22	2.22	5.85	0.024	404.9297895	78.0172568	41375	14.81997561	5.6859
2009	71	17.22	-2.78	11.72	0	795.2153365	390.1841358	41540	14.50930705	4.3256
2009	72	2.78	-5	0.64	0	319.2155879	317.3720177	41705	14.26862426	3.8877
2009	73	6.67	-5	3.46	0	326.2932209	466.8058276	41870	14.14728714	4.4922
2009	74	11.11	-1.11	7.75	0	333.8742675	389.5550718	42036	14.10503963	5.789
2009	75	13.89	2.22	10.68	0.775	274.9745386	392.044595	42202	14.26521032	5.9137
2009	76	11.67	3.33	9.38	0.004	267.5401823	124.9391758	42368	15.18270677	6.1281
2009	77	12.78	2.78	10.03	0	448.9978894	256.0915503	42534	14.93590734	6.9607
2009	78	22.78	3.89	17.58	0.004	1053.709672	434.3761973	42701	14.7723227	7.6341
2009	79	12.78	-2.22	8.65	0.004	629.3741589	321.2826183	42867	14.39949197	5.3979
2009	80	6.67	-6.11	3.15	0	449.3988361	337.8049172	43033	14.06734404	4.4512
2009	81	8.33	-6.11	4.36	0	434.1245019	406.4468056	43200	13.96449909	4.8576
2009	82	12.22	-3.33	7.94	0	772.7372812	355.0930683	43366	13.87787035	5.0747
2009	83	7.78	-6.67	3.81	0.003	602.8603107	528.8867755	43533	13.63178216	4.6961
2009	84	8.89	-6.11	4.76	0.002	618.5631465	512.8243438	43699	13.46890876	4.4778
2009	85	10	2.22	7.86	1.215	109.8442733	258.5353699	43865	14.34984759	4.7313
2009	86	5.56	1.67	4.49	0.041	272.2866165	45.54219658	44032	15.2378988	6.1947
2009	87	14.44	2.78	11.24	0.027	168.8633258	400.4028463	44198	15.37090022	7.0184
2009	88	12.22	7.22	10.85	0.698	227.6366565	89.91249465	44363	15.52907946	7.2037
2009	89	10.56	1.11	7.96	0.059	343.3438813	145.1713041	44529	15.27374517	5.6595
2009	90	3.89	0	2.82	0	353.6276041	159.5307081	44695	15.04330421	6.5893
2009	91	16.11	0.56	11.83	0.718	256.8713881	507.5134195	44860	15.27744361	6.6883
2009	92	8.89	6.11	8.13	0.026	314.3319836	105.789628	45025	15.43163991	8.6533
2009	93	18.89	6.67	15.53	1.816	278.580352	461.6348971	45190	16.09863849	9.4892
2009	94	15.56	3.33	12.19	0	640.2511348	79.33589099	45354	15.51357448	7.8102
2009	95	8.89	2.22	7.06	0	645.7900798	374.2813173	45518	15.1495631	8.4456
2009	96	18.89	2.78	14.46	0.639	490.0568742	525.2196537	45681	15.47118472	8.6383
2009	97	12.22	-1.11	8.56	0.01	442.7006644	176.3503981	45845	15.19081488	6.2266
2009	98	3.89	-0.56	2.67	0.002	422.2031368	243.2642859	46007	14.87616338	6.1648
2009	99	10	-0.56	7.1	0	604.6907822	351.3453616	46169	14.66563707	6.8093
2009	100	15	1.11	11.18	0.185	399.0540823	542.5718849	46331	14.51627718	6.6695
2009	101	9.44	3.89	7.92	0.204	503.8963151	102.5447389	46492	14.90589311	7.8833
2009	102	12.78	-1.11	8.96	0	778.1438675	444.5026901	46653	14.77317618	7.0921
2009	103	10	-2.78	6.49	0.484	547.4747602	572.1304552	46813	14.46791303	6.5666
2009	104	12.78	-1.11	8.96	0.798	119.0061886	368.7307332	46972	15.37459866	6.5834
2009	105	7.78	5	7.01	1.14	116.3689887	46.34452908	47131	16.07872384	6.7217
2009	106	7.78	-0.56	5.49	0.002	416.5154791	127.4696864	47289	15.52723024	7.7127
2009	107	18.33	1.11	13.6	0	1103.46758	564.2099018	47446	15.28540947	8.8964
2009	108	21.11	4.44	16.53	0	1361.317267	569.9938238	47602	15.04401544	10.1198
2009	109	23.33	10.56	19.82	0.033	1347.874024	541.9207463	47758	14.78427149	10.6932
2009	110	20	5	15.88	1.229	348.6805386	298.7421523	47912	15.15582199	8.7372
2009	111	7.78	4.44	6.86	0.205	175.0739881	73.9256231	48066	15.84998984	9.1634
2009	112	17.22	5	13.86	0.023	482.297071	306.7959311	48219	15.43861004	8.274
2009	113	11.11	2.22	8.67	0.144	464.8843314	330.8135415	48370	15.2893924	8.1495
2009	114	12.78	3.33	10.18	0.03	606.7031419	394.161765	48521	15.11997561	9.1851
2009	115	23.89	5	18.69	0	1212.598359	434.9593392	48671	15.0549685	11.8547
2009	116	30	13.89	25.57	0	2066.634528	432.1242549	48819	14.78583621	13.72
2009	117	31.11	15	26.68	0	2221.143246	546.1681371	48966	14.41030278	14.9433
2009	118	32.22	16.67	27.94	0	1939.849546	541.3218154	49112	13.99678927	15.2874
2009	119	29.44	6.67	23.18	0.002	1225.275917	493.4652334	49257	13.9091648	13.7594
2009	120	19.44	7.22	16.08	0.14	512.5185758	402.8471893	49401	13.49906523	12.0999
2009	121	17.22	11.11	15.54	0.847	329.7594936	118.7372182	49543	13.9693355	12.7498
2009	122	21.67	11.11	18.76	0.069	726.5510594	233.1827788	49683	15.88583621	13.0874
2009	123	17.78	8.33	15.18	0.265	280.056739	326.1133011	49823	15.39081488	11.5943
2009	124	14.44	8.33	12.76	1.5	146.8725817	177.5458567	49960	16.18754318	11.329
2009	125	11.11	9.44	10.65	0.855	196.1258044	78.52561083	50096	16.14742938	11.2122
2009	126	13.33	9.44	12.26	1.376	211.5938044	127.9462881	50231	16.40631985	11.8595
2009	127	18.89	11.11	16.75	0.022	522.6763283	230.7450906	50363	16.41670392	12.9371
2009	128	21.11	11.11	18.36	0.236	366.700773	325.696267	50495	15.77431416	12.9298
2009	129	22.22	12.78	19.62	0.009	757.6694342	263.7159845	50624	15.68811217	13.9085
2009	130	24.44	8.89	20.17	0	1085.621956	307.7087545	50751	15.08882341	12.7381
2009	131	15.56	6.11	12.96	0.034	368.7424103	261.8315742	50877	14.5438732	11.2035
2009	132	15.56	3.89	12.35	0	620.5911312	217.8732941	51000	14.22964845	11.1687
2009	133	16.67	4.44	13.31	0.031	702.4807696	483.4381675	51122	13.84885186	11.3917
2009	134	21.67	7.22	17.69	1.619	282.4456908	479.5092992	51241	15.65070108	12.292
2009	135	20	11.11	17.56	0	606.2392927	242.6118813	51358	16.06976224	13.5887
2009	136	24.44	11.11	20.78	1.91	472.1160068	503.6610067	51473	16.112152	14.6767
2009	137	26.11	7.78	21.07	0.002	1279.800578	327.6518823	51586	16.38953465	13.5528
2009	138	15	3.89	11.94	0	799.4811004	499.9752597	51697	15.56336111	11.681
2009	139	15.56	2.78	12.04	0.002	674.835982	604.3722614	51805	15.0519813	11.4274
2009	140	22.22	5.56	17.64	0	1029.752062	598.2218455	51910	14.61698842	12.4494
2009	141	28.33	11.11	23.6	0	1433.767087	585.7771946	52014	14.03917903	13.3844
2009	142	29.44	13.89	25.17	0	1243.95323	597.8737192	52114	13.3495631	14.1956
2009	143	28.89	15.56	25.22	0.098	798.0652995	447.9868996	52212	12.77829709	14.8665
2009	144	27.78	15.56	24.42	0.436	616.3887921	352.2021679	52308	12.58028856	15.2608
2009	145	29.44	16.11	25.78	0	1196.570604	385.4783015	52400	13.54856736	15.8024
2009	146	26.11	12.22	22.29	0.592	513.7200429	532.2553629	52490	13.13747206	13.9301
2009	147	12.78	9.44	11.86	0.188	127.795897	92.49831675	52577	14.2893924	12.9135
2009	148	16.67	10.56	14.99	1.821	156.1560378	162.9570088	52662	14.97360293	14.1883
2009	149	22.78	16.67	21.1	0.003	345.4430767	231.3654703	52743	16.58868116	15.0792
2009	150	20	12.78	18.01	0.005	761.5117931	184.9645217	52821	15.53377362	14.481
2009	151	21.67	10	18.46	0.001	917.7313413	544.0036298	52896	14.70062995	13.8389
2009	152	21.11	5	16.68	0.003	748.3944377	546.4939115	52969	13.91926438	13.0604
2009	153	22.78	8.33	18.81	0.562	391.0654887	477.6434632	53038	14.28085755	14.2583
2009	154	23.89	15.56	21.6	1.448	162.8550763	323.5355818	53103	16.04572241	14.2315
2009	155	16.67	11.11	15.14	0.002	320.1857322	54.65613362	53166	16.33078643	13.6781
2009	156	17.78	11.11	15.94	0.664	142.9780977	217.9634382	53225	16.53647633	13.4056
2009	157	14.44	12.22	13.83	0.002	457.0342452	73.79384771	53281	16.13320463	14.4352
2009	158	24.44	12.78	21.24	0	781.4197036	556.5243934	53334	15.33917903	15.1165
2009	159	27.22	15.56	24.01	1.188	665.3370689	531.5557575	53383	15.2807153	16.0979
2009	160	27.78	18.33	25.18	0.802	607.6812536	390.751633	53429	16.91499695	16.9924
2009	161	28.33	16.67	25.12	0.057	534.0691892	371.963008	53471	15.87573664	16.8578
2009	162	25	17.78	23.01	1.03	246.4732931	323.1155111	53510	15.94074375	16.5695
2009	163	22.22	17.78	21	0.405	384.3381698	157.7462929	53546	16.80688884	16.9755
2009	164	23.89	16.11	21.75	0.008	696.7668218	266.0981391	53577	16.15340378	16.8919
2009	165	25	11.11	21.18	0.015	901.0650168	364.0599933	53606	15.23704532	16.381
2009	166	25	12.78	21.64	0	948.8202684	561.4360619	53630	14.33718756	16.1218
2009	167	26.67	15	23.46	0	568.0934847	550.5218356	53651	13.56563707	15.8287
2009	168	22.22	15.56	20.39	2.058	280.2558962	188	53669	15.28427149	15.1406
2009	169	16.67	13.89	15.9	0.269	268.2314446	135.68088	53682	16.89494005	15.3356
2009	170	21.67	15.56	19.99	0.159	551.8582417	214.8344291	53693	16.09181061	16.0705
2009	171	24.44	16.11	22.15	3.874	322.3490787	340.8653606	53699	17.36606381	16.603
2009	172	24.44	16.67	22.31	0.251	646.0100973	146.2408476	53702	16.91030278	16.8768
2009	173	23.89	15.56	21.6	0	828.393316	276.2871455	53701	15.95895143	17.2676
2009	174	27.22	15.56	24.01	0	1047.297317	400.843899	53696	14.99878074	17.4711
2009	175	27.22	14.44	23.71	0	1122.611537	558.2149084	53688	13.93576509	17.6574
2009	176	29.44	16.11	25.78	0.001	996.8158224	575.9127916	53676	12.75667547	18.2792
2009	177	30.56	18.89	27.35	0.159	778.0274218	507.4936546	53661	11.77431416	18.7016
2009	178	26.67	15.56	23.61	0	921.1815165	403.7957905	53641	10.82395855	18.2577
2009	179	26.67	15.56	23.61	0.429	359.5379371	491.8327086	53619	9.921113595	17.1052
2009	180	21.11	13.89	19.12	0.045	571.5133907	116.2824116	53592	11.00930705	17.4273
2009	181	26.11	15.56	23.21	1.334	317.4763943	487.6221388	53562	12.81983337	17.3888
2009	182	22.78	13.89	20.33	0.776	384.479247	309.9693998	53529	14.78697419	17.1455
2009	183	24.44	15	21.85	0.26	292.929466	338.1314988	53491	15.83633408	17.2192
2009	184	22.22	15.56	20.39	0	508.6422429	242.0939926	53451	15.7322089	16.8188
2009	185	22.22	15	20.24	0	843.0129499	313.2517086	53407	14.81869539	17.14274859
2009	186	23.33	11.11	19.97	0	777.5442578	469.425514	53359	14.31343223	16.61132385
2009	187	23.89	12.22	20.68	0	853.5576772	547.6865574	53308	13.68185328	16.41713736
2009	188	27.22	13.89	23.56	0	1176.476636	523.280993	53254	13.30290591	16.65085131
2009	189	26.11	11.67	22.14	0	808.670287	512.0840101	53196	13.05027433	16.17359383
2009	190	22.78	12.78	20.03	0	719.4379253	403.718453	53135	12.67132697	16.2688571
2009	191	26.11	13.89	22.75	0	704.8211986	450.6709691	53071	12.2923796	16.4685858
2009	192	26.11	16.67	23.51	1.4	447.6598914	412.1833069	53004	11.78711644	17.05532807
2009	193	25.56	17.22	23.26	0	901.6685182	259.7328699	52933	15.24766381	17.54126486
2009	194	25	14.44	22.1	0	1029.287788	547.7308551	52860	16.65330591	16.83301225
2009	195	24.44	11.11	20.78	0	973.6450359	547.9027907	52783	15.04619012	16.05609835
2009	196	25	11.11	21.18	0.009	832.3341124	585.0799195	52703	17.61292697	15.99361108
2009	197	27.78	13.33	23.81	0	986.6266601	537.9431965	52620	16.41469539	18.19806903
2009	198	30	18.33	26.79	1.307	450.5324709	469.2875036	52535	14.75743223	17.15519242
2009	199	22.78	13.89	20.33	0.022	540.2532892	156.5801205	52446	13.41924276	16.85978217
2009	200	20.56	13.33	18.57	0.023	532.8747459	291.0120141	52355	12.17856907	16.55046411
2009	201	23.89	14.44	21.29	0.016	675.0930108	439.14927	52261	11.07936907	16.43010404
2009	202	26.11	15.56	23.21	0.217	693.6484257	380.9887854	52164	10.53065328	17.17708206
2009	203	25	15.56	22.4	0.694	372.1661505	389.7421492	52065	9.71831644	17.30868403
2009	204	25	16.67	22.71	2.02	320.5875517	253.5307815	51963	8.906105913	18.10018942
2009	205	25.56	17.22	23.26	0.165	532.685326	273.2542134	51858	11.20328486	18.24125916
2009	206	26.11	15	23.06	0.655	481.6771529	418.1852331	51751	14.05574802	17.8398258
2009	207	27.78	16.67	24.72	0.022	476.1631711	384.4510476	51642	14.75440065	18.22611073
2009	208	26.11	18.33	23.97	0.001	732.9878967	324.7343295	51530	16.50488486	18.25451403
2009	209	27.78	17.22	24.88	0	788.7211924	458.2545462	51417	15.4932217	18.35676593
2009	210	28.89	18.33	25.99	1.24	256.614042	470.5817154	51300	11.44373095	18.5772
2009	211	22.78	18.33	21.56	0	508.5388685	163.5237584	51182	12.68882341	18.9577
2009	212	27.78	19.44	25.49	1.467	246.626154	365.4246602	51062	14.01229425	18.9042
2009	213	22.22	16.67	20.69	0.003	528.009103	122.565441	50939	14.41613493	18.9525
2009	214	27.22	17.22	24.47	0.12	503.28073	506.6144249	50815	13.51272099	18.9751
2009	215	25.56	14.44	22.5	0.001	667.5599216	272.2438644	50688	12.80774233	18.3585
2009	216	25.56	15.56	22.81	0	624.4665166	507.4447785	50560	11.58725869	18.2562
2009	217	28.33	16.67	25.12	0	756.4169314	494.616855	50430	10.53235115	18.6079
2009	218	26.11	12.78	22.44	0.004	846.0942866	320.9862619	50298	9.302905913	17.4721
2009	219	25	12.22	21.49	0	668.5008427	428.4242485	50164	8.215281447	16.8196
2009	220	24.44	13.89	21.54	0.277	634.6702583	421.8924624	50029	7.374029669	17.2882
2009	221	26.11	16.11	23.36	0.177	442.6475989	406.1789064	49892	7.224100793	18.6998
2009	222	29.44	20	26.85	0.418	806.3058002	245.3757889	49754	7.150701077	20.0201
2009	223	32.22	20	28.86	0.038	614.5217081	433.2942315	49614	6.914001219	19.6707
2009	224	27.78	18.33	25.18	1.84	449.6914643	273.9751375	49472	6.637329811	19.138
2009	225	26.67	16.67	23.92	0	530.6079843	277.6136834	49330	7.563787848	18.9228
2009	226	26.67	17.78	24.22	0	626.9497425	466.979425	49186	7.479292827	19.1792
2009	227	28.89	17.78	25.83	0.002	794.0750932	471.8079119	49040	7.131924406	19.5669
2009	228	30.56	19.44	27.5	0	901.5865104	517.4930666	48894	6.72936395	18.9118
2009	229	31.11	20	28.06	0.002	1105.731535	512.0612768	48746	6.096084861	19.84415225
2009	230	32.78	20.56	29.42	0.451	611.56991	520.5570508	48597	10.50665328	19.87823621
2009	231	30.56	20.56	27.81	0.002	676.9374703	353.0740618	48446	8.163748019	20.19729999
2009	232	29.44	20	26.85	0	749.152435	335.0939435	48295	9.170358545	20.24085172
2009	233	29.44	20.56	27	0.488	492.655685	360.8208255	48143	8.073937492	20.48701368
2009	234	26.67	18.89	24.53	0	559.8637232	286.8407377	47990	6.734484861	20.17931123
2009	235	26.67	17.78	24.22	0	846.3101499	300.8905427	47836	9.892379598	20.19953883
2009	236	25.56	14.44	22.5	0	576.5525923	432.6559426	47681	11.13179012	18.83772853
2009	237	25.56	14.44	22.5	0	667.7699726	383.9634929	47525	10.1827796	18.59346012
2009	238	27.22	16.11	24.17	0	897.3468059	508.4194604	47368	9.210021703	18.72600887
2009	239	28.89	17.22	25.68	0.027	534.4074612	462.4241898	47210	8.086063808	18.97501116
2009	240	19.44	16.67	18.68	1.252	219.3969411	128.512093	47052	7.366063808	18.51298409
2009	241	20	16.67	19.08	1.77	330.555097	72.7311539	46893	6.734484861	18.73168953
2009	242	26.11	14.44	22.9	0	761.1388359	320.4080541	46734	6.229221703	18.07273289
2009	243	22.22	11.11	19.17	0.001	540.8998917	480.1938247	46573	5.597642756	16.85517795
2009	244	18.89	7.78	15.83	0	474.5543285	398.0785771	46413	3.25909368	16.0903
2009	245	20.56	8.33	17.19	0	529.277754	538.6507319	46251	3.136903068	15.3264
2009	246	23.33	10	19.67	0	586.9153305	521.0623576	46089	3.133346881	15.6241
2009	247	23.89	10.56	20.22	0	627.404906	512.5118558	45927	3.071611461	16.1595
2009	248	25	12.22	21.49	0	667.4029684	508.0795167	45764	2.92879496	16.6252
2009	249	25.56	12.78	22.04	0	723.5662468	474.4047149	45600	2.681995529	16.6672
2009	250	25	13.89	21.94	0.01	385.7817956	454.5401105	45437	2.533915871	16.6683
2009	251	20	17.22	19.24	0.004	409.4359562	150.4898834	45272	2.41798415	16.8258
2009	252	22.22	16.11	20.54	0.006	474.4212481	208.9722001	45108	2.288965657	16.8716
2009	253	22.78	15	20.64	0.008	708.5729684	236.9511826	44943	2.104328389	16.6283
2009	254	20	12.78	18.01	2.075	218.3804631	440.6224485	44778	1.754115017	15.0258
2009	255	15	12.22	14.24	0.053	192.5441047	62.22258086	44613	2.104897379	15.5549
2009	256	19.44	13.89	17.92	0.01	587.8569736	106.9569825	44447	2.6522658	16.748
2009	257	24.44	15	21.85	0.005	598.2023368	477.8696958	44281	2.926661248	16.9963
2009	258	23.89	13.89	21.14	0	456.242422	328.4017228	44115	2.934769356	16.6792
2009	259	24.44	11.67	20.93	0	743.9274831	297.3866755	43949	2.85454176	16.2447
2009	260	19.44	11.67	17.31	0.013	315.1932069	387.5532056	43783	2.665210323	15.3208
2009	261	16.11	13.89	15.5	0.014	481.6589997	79.71882523	43617	2.634200366	16.1643
2009	262	23.33	10	19.67	0.016	668.9773209	431.1204143	43450	2.3636456	15.469
2009	263	20	5.56	16.03	0	394.0091204	511.4600545	43284	2.003474903	14.609
2009	264	23.33	6.11	18.6	0	470.319669	419.366955	43117	1.948567364	15.5835
2009	265	23.89	14.44	21.29	0.077	413.0755619	425.1073549	42951	1.934911603	16.4487
2009	266	23.33	18.33	21.96	0.461	323.0048201	146.6952599	42784	2.034058118	17.5861
2009	267	26.11	17.78	23.82	0.001	550.8505766	287.909733	42618	2.164072343	17.8292
2009	268	22.78	13.33	20.18	0.001	766.0699265	209.8487704	42452	1.989250152	16.6905
2009	269	20	12.22	17.86	3.541	393.1857879	423.0745637	42286	1.631355416	14.5851
2009	270	14.44	11.67	13.68	1.124	97.59836475	66.51524217	42120	1.765779313	14.4364
2009	271	16.67	12.22	15.44	0.783	392.4936873	144.1699004	41954	2.141597236	14.0292
2009	272	20	11.11	17.56	0.005	614.0463142	258.0364698	41788	2.544584434	13.2668
2009	273	13.89	10.56	12.97	0.001	474.1497003	80.00398818	41623	2.89223735	13.0697
2009	274	13.33	6.67	11.5	0	425.1628331	226.9404458	41458	2.961085145	11.957
2009	275	12.78	3.89	10.33	0.968	132.6601074	243.7642458	41293	2.927941475	11.3275
2009	276	15	5	12.25	0.041	279.36355	215.6805174	41129	3.32310506	13.0195
2009	277	18.89	7.78	15.83	0	395.4028318	364.3781369	40964	3.694940053	12.3299
2009	278	15.56	7.78	13.42	0	431.4231722	216.5545207	40801	3.940174761	12.1508
2009	279	15.56	4.44	12.5	0.002	370.5361453	299.5252848	40637	4.055252997	11.7107
2009	280	17.78	5	14.26	0.275	564.702324	375.2800316	40474	4.382849014	12.494
2009	281	13.33	7.78	11.81	0.002	466.8655743	216.561148	40312	4.59394432	12.2181
2009	282	18.33	8.33	15.58	1.539	171.0742548	346.520797	40150	4.939748019	12.901
2009	283	17.78	11.67	16.1	0.051	390.5188521	98.41761484	39989	6.180430807	13.0796
2009	284	14.44	5	11.85	0	373.7990604	209.3787285	39828	6.540459256	10.8208
2009	285	12.78	3.89	10.33	0	340.3996733	336.8411526	39667	6.733773623	9.8866
2009	286	9.44	3.89	7.92	0.014	283.6007623	134.8980966	39508	6.977159114	10.3433
2009	287	13.33	0	9.67	0	252.7312396	155.3075809	39349	7.035480593	8.9638
2009	288	7.22	0.56	5.39	2.875	65.32204503	143.7659156	39191	8.195509043	7.7386
2009	289	3.89	-0.56	2.67	1.015	39.74306619	41.64829759	39033	12.72253607	6.4045
2009	290	1.67	0	1.21	0.716	44.46893486	105.1623624	38876	13.86336111	6.8531
2009	291	3.89	0	2.82	0.051	193.5736985	86.93755165	38720	13.84828287	7.6578
2009	292	10	-1.11	6.94	0	279.1027575	257.0438221	38565	13.39280634	7.4812
2009	293	12.78	0	9.26	0	396.3782907	402.2132462	38411	13.3010567	8.9671
2009	294	19.44	6.67	15.93	0	513.2498888	342.0583407	38258	13.2435887	10.0169
2009	295	21.11	7.78	17.44	0	743.1655047	279.9480397	38106	13.23647633	10.7995
2009	296	21.67	8.33	18	1.851	421.5513789	314.7272296	37955	13.65283479	11.3438
2009	297	17.22	11.11	15.54	6.417	347.2655167	117.1349064	37804	15.89721601	12.7494
2009	298	18.33	6.67	15.12	0	724.291248	136.2429425	37655	14.87787035	11.3364
2009	299	15	2.78	11.64	0	419.3229011	365.9718719	37507	14.38171103	10.2235
2009	300	15.56	3.33	12.19	0.546	201.9614038	343.4797248	37361	14.2037594	10.2742
2009	301	13.33	7.78	11.81	0.801	131.5099396	136.5894397	37215	15.78014631	11.3719
2009	302	15	11.11	13.93	0	246.9586021	83.21016428	37071	15.1923796	11.7824
2009	303	13.33	10	12.42	0.014	246.492101	79.03531196	36928	14.87573664	11.5071
2009	304	14.44	11.11	13.53	0.11	391.4013184	58.89743659	36787	14.73704532	11.711
2009	305	16.67	5.56	13.61	0	645.7503674	58.59573771	36647	14.58725869	10.712
2009	306	11.67	-0.56	8.31	0	308.9746219	300.2259717	36509	14.25624873	9.4328
2009	307	12.78	0	9.26	0.053	442.227101	341.7961344	36372	14.07346068	9.2939
2009	308	12.22	-1.11	8.56	0.003	384.6979668	277.2042388	36237	13.77459866	7.9766
2009	309	7.78	-1.11	5.33	0.076	213.3716827	194.7745617	36103	13.64159724	7.6192
2009	310	7.22	0.56	5.39	0	391.6988879	113.8939145	35971	13.55155456	7.1902
2009	311	7.78	-2.22	5.03	0	335.0895566	336.1670712	35841	13.37104247	6.955
2009	312	13.33	-2.22	9.06	0.001	394.3304765	306.7477949	35713	13.49309084	8.9187
2009	313	21.11	5.56	16.83	0	457.0171514	315.5840499	35586	13.47459866	9.4553
2009	314	19.44	5.56	15.62	0	543.8915295	189.9116237	35462	13.4492786	9.9797
2009	315	14.44	5.56	12	0.015	742.7692553	138.9815218	35339	13.33476936	9.3092
2009	316	10.56	2.22	8.26	0	635.896958	173.1909481	35219	13.16222313	8.5269
2009	317	10	2.78	8.01	0	609.4263692	186.6418803	35100	13.24003251	9.5785
2009	318	15.56	5	12.65	0.004	362.9603322	271.4951978	34984	13.53747206	10.8306
2009	319	14.44	4.44	11.69	0.001	298.1035457	133.4935475	34870	13.46080065	10.6977
2009	320	19.44	5.56	15.62	0	734.7430277	276.6466239	34759	13.41528145	10.79
2009	321	12.78	5.56	10.79	0	794.3924701	289.2625473	34649	13.22196708	9.6247
2009	322	8.89	2.78	7.21	0	365.799792	100.9619594	34542	12.99991872	8.6742
2009	323	10	4.44	8.47	1.256	110.5722992	173.5931529	34438	14.16691729	9.4758
2009	324	11.11	6.11	9.74	0	439.1936874	54.9111137	34336	15.65610648	9.5158
2009	325	10	5	8.62	0	315.3315028	191.1826679	34237	15.25141231	9.039
2009	326	10.56	5	9.03	0	191.8939447	116.415993	34140	14.9064621	7.9979
2009	327	8.33	3.89	7.11	0.257	215.7106532	80.56611643	34046	14.75809795	8.1253
2009	328	9.44	4.44	8.07	0.473	79.92162581	92.74624492	33954	16.00461288	8.8462
2009	329	9.44	6.67	8.68	0.026	100.914755	76.33266403	33866	15.72011786	9.0603
2009	330	10.56	2.22	8.26	0.686	98.29357923	92.60408526	33780	15.64799837	8.4058
2009	331	10	2.22	7.86	0.048	323.7376413	140.3104727	33697	16.00319041	7.2254
2009	332	5.56	1.67	4.49	0.009	219.0044832	100.8761378	33618	15.53619183	6.1962
2009	333	5	0	3.62	0.023	273.8465278	97.60299335	33541	15.28142654	6.6002
2009	334	16.11	0.56	11.83	0.104	443.3355542	253.7934981	33467	15.30745783	7.7687
2009	335	11.11	-0.56	7.9	0	346.3394737	63.40611432	33397	15.01869539	5.7942
2009	336	6.11	-2.22	3.82	1.114	74.259888	119.4484083	33329	15.16151189	5.1591
2009	337	12.78	-1.67	8.81	0.442	269.6985342	68.63177514	33265	16.29835399	7.1015
2009	338	11.67	2.78	9.22	0.002	404.3970804	58.21304662	33204	15.68526722	6.0143
2009	339	5	-1.11	3.32	0.467	103.075495	140.8872262	33146	15.33590734	4.6376
2009	340	0.56	-3.89	-0.67	0.001	169.5391919	39.108425	33092	15.61385897	4.089
2009	341	0.56	-5.56	-1.12	0.004	114.5965167	283.8162586	33041	15.4750254	3.3154
2009	342	1.11	-5.56	-0.72	0.921	191.6584817	88.95050465	32993	15.3579557	4.0987
2009	343	3.33	-1.11	2.11	2.348	93.08141013	218.1263771	32949	15.64828287	3.8168
2009	344	6.11	-3.33	3.51	0.001	362.2057389	154.7091677	32909	15.78213778	2.9056
2009	345	-2.22	-10	-4.36	0	241.5653984	166.6408798	32872	15.34017476	1.9316
2009	346	-2.78	-9.44	-4.61	0	243.8525446	204.1721177	32838	15.13363138	1.6472
2009	347	2.22	-5.56	0.08	1.665	137.7923547	275.3377835	32808	15.42196708	2.0308
2009	348	5	-0.56	3.47	0	126.5436996	51.09499115	32782	15.99835399	2.7419
2009	349	7.78	2.78	6.4	0.152	169.7839001	131.1490583	32759	15.97090022	3.3692
2009	350	7.78	-3.89	4.57	0.005	351.5186021	52.82345754	32740	15.7549685	2.3617
2009	351	-1.11	-7.22	-2.79	0.001	194.6349855	233.9156582	32724	15.36577931	1.4807
2009	352	-1.67	-6.67	-3.04	0	190.6060358	212.0011005	32712	15.19920748	1.5458
2009	353	0	-6.67	-1.83	0.775	69.38089985	178.18591	32704	15.05667547	1.6344
2009	354	-4.44	-7.22	-5.21	0.005	141.3702265	62.00299703	32699	14.95966267	1.8931
2009	355	0	-6.11	-1.68	0.002	163.3830332	250.2578751	32698	14.9235318	2.0431
2009	356	0.56	-3.33	-0.51	0.005	181.8306143	200.249656	32701	15.01599268	2.1358
2009	357	1.11	-9.44	-1.79	0	198.3102232	114.6239031	32707	14.81400122	1.3287
2009	358	-1.67	-9.44	-3.81	0	130.5850733	276.4927713	32717	14.92282056	1.1827
2009	359	0	-5.56	-1.53	0.784	66.77951248	271.6298005	32731	15.2780126	1.4195
2009	360	6.11	-1.67	3.97	1.86	54.83178188	43.00454976	32749	16.35752896	2.4908
2009	361	6.67	-2.78	4.07	0.001	160.2968077	50.7335978	32770	15.96919325	3.1649
2009	362	5	-2.78	2.86	0.024	256.0515326	196.5332378	32794	15.58199553	2.0939
2009	363	-2.22	-7.78	-3.75	0.037	202.1849359	131.618122	32822	15.22452754	0.9039
2009	364	-4.44	-9.44	-5.82	0	146.7228171	227.6367566	32854	14.75269254	0.7175
2009	365	-1.67	-9.44	-3.81	0.433	66.96507975	174.9951656	32889	14.61954887	0.8189
2010	1	0	-3.89	-1.07	0.022	111.5198336	85.07561953	32928	14.8208291	0.9966
2010	2	2.78	-7.78	-0.12	0.073	216.0043044	110.3866428	32971	14.75340378	0.6575
2010	3	-6.67	-11.11	-7.89	0.005	118.5879497	178.9096526	33017	14.42495428	0.3803
2010	4	-6.11	-10.56	-7.33	0.005	120.014054	82.91417166	33066	14.02708799	0.1784
2010	5	-3.89	-7.78	-4.96	0.01	132.4565973	107.471542	33119	13.77602113	0.1103
2010	6	-2.78	-7.78	-4.15	0.019	121.4258647	86.79933685	33175	13.5720382	0.1164
2010	7	-1.11	-3.89	-1.87	0.079	165.2800878	66.69669615	33234	13.5522658	0.1575
2010	8	-1.67	-6.11	-2.89	0.058	125.2094245	84.95921432	33296	13.58498273	0.1628
2010	9	-4.44	-8.89	-5.67	0.005	176.6695034	209.6644086	33362	13.70745783	-0.0911
2010	10	-2.78	-13.33	-5.68	0	146.0890171	292.5369268	33431	13.76222313	-0.2455
2010	11	-4.44	-13.33	-6.89	0.016	127.458138	261.7366803	33503	13.66976224	-0.1574
2010	12	-2.22	-9.44	-4.21	0.001	147.7534395	156.5544537	33579	13.41400122	-0.3782
2010	13	-2.22	-6.67	-3.44	0	169.3752225	206.6843747	33657	13.39053038	-0.0965
2010	14	0	-7.78	-2.14	0	186.0429463	176.3264865	33738	13.46350335	-0.2581
2010	15	7.22	-7.22	3.25	0	245.8080478	288.1660458	33822	13.8351961	0.316
2010	16	5.56	2.22	4.64	0	241.7271257	59.95647173	33909	14.597785	0.9099
2010	17	9.44	-1.67	6.39	1.665	67.46757635	170.790435	33999	15.74856736	1.0253
2010	18	3.89	-1.11	2.51	0.01	129.5067224	26.47219289	34092	16.14472668	2.3815
2010	19	6.11	2.22	5.04	0.015	179.3813113	203.5951093	34187	15.89323308	2.2715
2010	20	4.44	-2.22	2.61	0	253.3243194	45.43497156	34285	15.65283479	1.8628
2010	21	1.67	-7.22	-0.78	0	178.2963888	164.4032455	34386	15.39636253	1.4443
2010	22	3.33	-6.67	0.58	0.065	242.7984897	294.5434776	34489	15.39252185	2.087
2010	23	2.78	-4.44	0.79	0	267.359495	103.8670328	34595	15.30546637	2.058
2010	24	5	-5	2.25	1.476	142.2054918	298.4909374	34703	15.51371672	2.3595
2010	25	13.33	1.67	10.12	3.723	284.4608514	68.47710691	34814	17.012152	5.3158
2010	26	11.67	-1.67	8	0.028	387.2378933	77.96546985	34926	16.14757163	3.1413
2010	27	0.56	-3.89	-0.67	0.004	234.7107231	176.6892301	35042	15.76521032	1.921
2010	28	0.56	-3.89	-0.67	0.068	202.1964405	229.6415143	35159	15.52125584	1.2227
2010	29	1.67	-13.33	-2.46	0	232.2756603	193.8167697	35278	14.8693355	0.2589
2010	30	-7.22	-13.33	-8.9	0	153.0169118	276.4918644	35400	14.29138387	-0.0355
2010	31	-8.33	-13.89	-9.86	0	155.742414	142.3351068	35523	13.69294859	-0.5622
2010	32	-2.22	-13.33	-5.28	0	191.5766279	338.7432467	35649	13.48313351	-0.4899
2010	33	-1.11	-7.78	-2.94	0.188	149.8203472	258.1529517	35776	13.42324731	-0.113
2010	34	1.67	-6.67	-0.62	0.003	138.2543235	170.4110291	35905	13.65425726	-0.1069
2010	35	1.11	-4.44	-0.42	0	282.8756916	113.4632035	36036	14.04700264	-0.209
2010	36	3.33	-4.44	1.19	1.194	169.1546818	336.3579861	36169	14.41087177	0.1622
2010	37	1.11	-5.56	-0.72	0.582	179.3266347	68.67597719	36303	14.58626295	0.1635
2010	38	-2.22	-15.56	-5.89	0.001	140.014984	205.5920143	36440	14.6178419	0.2454
2010	39	-2.22	-14.44	-5.58	0	135.2405321	369.5466277	36577	14.62595001	0.3665
2010	40	-1.67	-10.56	-4.11	0.269	77.78833028	401.6545103	36716	14.58981914	0.624
2010	41	-2.22	-8.89	-4.06	0.704	61.59693208	131.9910465	36857	14.6067466	0.6113
2010	42	-2.78	-9.44	-4.61	0.001	139.1377205	104.2889808	36999	14.63690307	0.6271
2010	43	-1.11	-5.56	-2.33	0	209.4065999	229.4715828	37143	14.73121317	0.6707
2010	44	1.11	-7.78	-1.33	0.01	211.6857332	340.1720171	37287	14.8268035	0.8091
2010	45	-3.33	-7.78	-4.56	0.004	137.1988201	192.6055619	37433	14.79764276	0.8286
2010	46	-1.11	-9.44	-3.4	0.371	119.729269	126.4190948	37581	14.70589311	0.8421
2010	47	0.56	-9.44	-2.19	0.011	165.7281876	221.9893451	37729	14.72296281	0.8869
2010	48	-1.11	-6.67	-2.64	0.017	161.4629869	248.4792629	37879	14.75368827	0.983
2010	49	0.56	-5	-0.97	0.002	215.9663021	192.9330774	38029	14.83647633	1.0059
2010	50	2.78	0	2.01	0	320.3520665	270.4695529	38181	15.48043081	0.9184
2010	51	4.44	-3.89	2.15	0	334.1611361	301.7261178	38334	16.2007722	0.9541
2010	52	5	-3.89	2.56	0	409.1621616	232.2372749	38487	16.29422882	0.7643
2010	53	7.22	-3.33	4.32	0.15	253.520992	407.1309456	38642	16.38654745	0.971
2010	54	4.44	-2.22	2.61	0.017	75.61425035	137.8104026	38798	16.26919325	1.0682
2010	55	3.33	-0.56	2.26	0	263.6064599	104.6039945	38954	16.3837025	1.2826
2010	56	2.78	-2.22	1.4	0.06	207.1322165	208.8667638	39111	16.31698842	1.0413
2010	57	0.56	-6.67	-1.43	0.315	120.0686571	222.8887927	39269	16.05681772	0.5739
2010	58	-2.22	-5.56	-3.14	0.081	119.7091058	132.2950695	39428	15.92964845	0.8096
2010	59	1.67	-3.89	0.14	0.016	187.3356345	272.2746861	39587	16.07075798	0.9287
2010	60	4.44	-1.11	2.92	0.006	233.5345711	251.1958638	39747	16.40631985	1.2026
2010	61	3.89	0	2.82	0.005	243.5892452	165.3150575	39907	16.39693152	1.3465
2010	62	3.33	-0.56	2.26	0.043	207.0671659	182.1579814	40068	16.44558017	1.5542
2010	63	4.44	-2.78	2.46	0	394.4714723	115.5337808	40230	16.48981914	1.5009
2010	64	5	-2.78	2.86	0	426.5389723	439.5047534	40392	16.44799837	2.2503
2010	65	7.22	-5	3.86	0	483.723969	419.4639872	40555	16.32438529	2.7602
2010	66	9.44	-4.44	5.62	0	602.7230652	467.4409352	40718	16.13747206	3.4683
2010	67	10.56	-1.11	7.35	0.001	646.133554	460.0942958	40882	15.93462711	4.1717
2010	68	11.67	-0.56	8.31	0	594.5900011	461.4164596	41046	15.73647633	4.6572
2010	69	15.56	1.11	11.58	0.003	679.1629471	454.4945402	41210	15.56677505	5.1763
2010	70	15.56	2.22	11.89	0.006	541.3981871	261.2535589	41375	15.56762853	7.0167
2010	71	18.89	3.89	14.76	1.034	178.3883097	421.2968946	41540	15.99622028	7.2823
2010	72	10	5	8.62	3.237	123.9284277	64.10411222	41705	17.10888031	6.3177
2010	73	8.33	5	7.42	0.322	103.5372274	55.12892286	41870	16.9381833	6.0542
2010	74	6.67	4.44	6.06	0.041	196.7819722	65.61390237	42036	16.54799837	5.8135
2010	75	6.67	4.44	6.06	0	528.4148953	78.1147339	42202	16.39764276	6.8832
2010	76	15.56	-0.56	11.13	0	786.6147442	476.9151246	42368	16.15852469	7.0029
2010	77	17.78	0	12.89	0	884.5385146	492.73607	42534	15.90845357	7.1553
2010	78	18.89	1.67	14.15	0	912.8883794	470.4246036	42701	15.74074375	7.9052
2010	79	20	6.11	16.18	0	1037.163672	467.6267992	42867	15.57616338	8.7103
2010	80	21.11	6.67	17.14	0	1167.51575	434.3761299	43033	15.46336111	9.9589
2010	81	22.78	7.78	18.65	0.346	561.2853258	416.7556944	43200	15.35055883	10.2415
2010	82	18.33	7.78	15.43	0.215	335.6198265	124.479454	43366	15.50859581	8.7507
2010	83	8.33	2.78	6.81	0	570.5693522	48.67755496	43533	15.53832554	8.1865
2010	84	15.56	2.78	12.04	1.081	517.5675446	503.9315774	43699	15.44714489	8.3095
2010	85	18.33	-1.11	12.99	0.221	733.2761299	231.4165508	43865	16.73676082	7.7937
2010	86	5	-5.56	2.1	0	443.5347271	467.6842978	44032	16.16264987	6.3286
2010	87	8.89	-5.56	4.92	2.297	172.9833566	470.2192181	44198	16.28555172	5.4362
2010	88	7.22	2.78	6	0	186.4774684	150.5477538	44363	16.75539524	7.1282
2010	89	14.44	1.67	10.93	0.002	690.6611826	225.4681668	44529	16.33107092	6.8046
2010	90	10	1.67	7.71	0	707.0691914	266.377738	44695	16.16734404	8.1025
2010	91	20	5	15.88	0.028	1108.768058	511.437004	44860	16.00006096	9.8338
2010	92	26.67	6.67	21.17	0	1343.450028	507.3818101	45025	15.83320463	11.56
2010	93	28.33	10	23.29	0	1371.97667	462.4367559	45190	15.64842512	12.4431
2010	94	25.56	12.22	21.89	0	1784.308152	435.8771001	45354	15.41314773	12.3859
2010	95	21.11	7.22	17.29	0.127	1113.620212	465.9983303	45518	15.09266409	12.1568
2010	96	26.67	8.33	21.63	0.157	1268.346143	406.7829076	45681	15.07986182	13.8265
2010	97	30	15.56	26.03	0.049	2277.840818	446.655186	45845	14.94842512	14.0191
2010	98	29.44	12.22	24.71	0.194	1355.85076	379.7380833	46007	14.69053038	13.659
2010	99	28.89	4.44	22.17	0.037	1122.008326	372.5798913	46169	14.27687462	10.5581
2010	100	7.22	3.89	6.31	0	562.5312808	179.55233	46331	14.04572241	10.4056
2010	101	16.67	5.56	13.61	0.126	923.1641868	548.0731954	46492	13.96976224	10.9814
2010	102	21.11	2.78	16.07	0	1318.838169	437.8569009	46653	13.87758586	11.3363
2010	103	18.89	4.44	14.92	0.001	845.7859205	518.1982569	46813	13.5920951	10.0474
2010	104	13.33	0	9.67	0	506.9135009	221.6722941	46972	13.36350335	10.126
2010	105	18.33	2.78	14.06	0	837.0168582	526.7408075	47131	13.32196708	11.1727
2010	106	25.56	7.78	20.67	0.557	874.0810633	461.4455159	47289	13.3322089	12.2926
2010	107	25.56	6.11	20.21	0.068	825.0047669	318.0201281	47446	13.45240805	10.049
2010	108	7.22	1.67	5.69	0.017	312.1296568	170.5551657	47602	13.24757163	8.7607
2010	109	9.44	1.67	7.31	0	517.9129054	200.2423678	47758	13.27132697	9.9825
2010	110	17.22	2.22	13.1	0	745.8473127	558.1331817	47912	13.22324731	10.654
2010	111	18.33	5	14.67	0.063	608.2405161	482.3339367	48066	13.06962	10.7469
2010	112	20	4.44	15.72	0.056	751.3825465	396.1591281	48219	12.90191018	10.8678
2010	113	20	3.33	15.42	0.001	1116.214058	385.3875336	48370	12.72723024	11.2702
2010	114	19.44	3.89	15.17	0.111	757.695633	564.1263783	48521	12.3837025	10.2374
2010	115	16.67	6.11	13.76	1.316	125.4044897	259.9680097	48671	12.6720382	9.9398
2010	116	11.67	7.78	10.6	1.117	100.9510084	107.3452959	48819	15.06208088	10.0933
2010	117	12.22	5.56	10.39	0	599.0647484	107.8803864	48966	16.29735826	10.0358
2010	118	11.11	1.67	8.51	0	629.9726654	455.3688101	49112	15.7549685	9.2705
2010	119	12.78	2.78	10.03	0.073	801.9290074	399.0018881	49257	15.48299126	10.2975
2010	120	19.44	6.67	15.93	0.019	905.2578058	546.7403494	49401	15.21314773	11.9353
2010	121	27.78	10	22.89	0	1358.744456	521.5866621	49543	14.84117049	13.5851
2010	122	30.56	15.56	26.43	1.075	594.7040993	450.8251716	49683	14.38228002	14.1966
2010	123	23.89	17.78	22.21	0.754	641.6816102	146.5390482	49823	16.67474091	15.0072
2010	124	25	12.78	21.64	0.37	871.2859522	270.4929544	49960	16.30973379	13.9182
2010	125	22.22	8.89	18.56	0	858.2302341	442.5669115	50096	15.83903678	13.6522
2010	126	26.67	11.11	22.39	0.27	1221.65997	569.4504788	50231	15.65055883	13.9708
2010	127	21.11	6.11	16.99	0	743.1969638	560.3188452	50363	15.17346068	12.8574
2010	128	20.56	8.33	17.19	0.813	641.877035	446.5041489	50495	15.90134119	12.7503
2010	129	16.11	2.78	12.44	0.001	632.339722	343.873558	50624	15.61229425	10.2552
2010	130	8.33	2.22	6.65	0	538.1930523	221.9358042	50751	15.11144076	9.9422
2010	131	15	1.67	11.33	2.929	284.1894484	601.7866816	50877	15.55397277	8.7392
2010	132	9.44	3.33	7.76	0.369	95.03821326	84.61235294	51000	16.97402967	9.366
2010	133	16.11	6.67	13.51	0.001	325.1761622	124.2531591	51122	16.37587889	10.3209
2010	134	14.44	7.78	12.61	0.295	322.4562471	204.1767335	51241	16.17715911	12.222
2010	135	27.22	11.11	22.79	0	1337.088583	332.1215001	51358	15.99863849	13.0431
2010	136	21.11	10.56	18.21	0.003	900.2163436	517.0892312	51473	15.30219468	12.8196
2010	137	19.44	8.89	16.54	0.338	439.1544302	545.8230915	51586	14.75624873	11.9806
2010	138	15.56	8.33	13.57	0.512	179.6434306	138.9265141	51697	15.96606381	11.1128
2010	139	11.67	8.33	10.75	0.003	250.5843739	92.26130682	51805	16.05980492	11.4335
2010	140	17.78	10	15.64	0.001	659.6935837	253.1652475	51910	15.62424304	13.125
2010	141	27.22	13.33	23.4	0	1003.374627	550.5801323	52014	14.88683194	13.9917
2010	142	27.78	15.56	24.42	1.541	781.8861175	410.6865142	52114	14.27687462	14.269
2010	143	22.22	15	20.24	0.632	266.716222	299.7104497	52212	17.5438732	14.6927
2010	144	22.22	13.89	19.93	0.005	399.917488	255.3545538	52308	16.76833977	14.9347
2010	145	23.33	15	21.04	0.007	644.1077855	286.6230725	52400	16.12879496	15.9715
2010	146	26.67	16.11	23.76	0	895.8815694	439.6306725	52490	15.31684617	16.5058
2010	147	30	17.78	26.64	0	1313.359499	547.7983339	52577	14.36506808	17.4317
2010	148	30.56	18.89	27.35	0.049	664.1662989	479.0819376	52662	13.30091445	16.9615
2010	149	26.11	17.78	23.82	0	684.3608582	289.6928502	52743	12.54472668	16.9003
2010	150	26.11	13.33	22.6	0	956.8020012	354.3647792	52821	11.43420037	16.8065
2010	151	30	16.11	26.18	0.126	789.0704057	569.5046317	52896	10.28028856	17.1182
2010	152	30.56	17.78	27.04	0.308	503.5565497	397.5129038	52969	9.582280024	17.1472
2010	153	26.11	14.44	22.9	0.001	795.9966503	256.7324937	53038	8.947002642	17.055
2010	154	28.33	16.11	24.97	0	918.3023758	527.5724912	53103	8.213289982	17.5572
2010	155	27.78	18.89	25.33	0.04	670.8221589	376.3463868	53166	7.499349726	17.5774
2010	156	28.33	18.89	25.74	0.189	534.0558894	354.1336778	53225	7.033062386	17.8605
2010	157	27.78	18.89	25.33	0.105	791.4485343	293.8819467	53281	6.632351148	17.6112
2010	158	25.56	12.78	22.04	0	1096.404058	343.5280309	53334	5.902621418	16.038
2010	159	21.11	10	18.06	0	920.4562131	410.4082198	53383	5.19166836	15.1617
2010	160	22.22	11.67	19.32	3.931	255.7260075	585.2579124	53429	9.370900224	14.1414
2010	161	17.22	12.22	15.85	0	513.1863292	72.04826916	53471	11.4522658	15.6406
2010	162	25.56	12.78	22.04	0	685.5874432	487.6168193	53510	9.907742329	15.801
2010	163	25.56	13.89	22.35	0.021	570.430018	467.1209801	53546	9.078723837	17.2697
2010	164	31.11	19.44	27.9	0.529	730.595471	471.5924371	53577	8.703332656	18.3716
2010	165	28.33	16.67	25.12	0.009	625.1153143	296.6134574	53606	8.368197521	17.8012
2010	166	25	18.33	23.17	0.018	529.8318543	218.7056312	53630	7.951981305	17.3128
2010	167	23.33	17.78	21.81	0.105	485.7824635	255.665188	53651	7.752123552	17.6278
2010	168	28.33	17.22	25.28	0	1173.624179	428.3863683	53669	7.342450721	17.4982
2010	169	23.33	11.67	20.12	0	676.6384707	434.4317648	53682	6.550985572	16.7346
2010	170	27.22	13.89	23.56	0.043	778.92801	574.6877247	53693	6.027799228	17.5945
2010	171	31.11	17.78	27.44	0	1104.615981	503.0047114	53699	5.619548872	18.4597
2010	172	28.89	16.11	25.38	0	1056.244733	418.5089568	53702	5.027941475	18.2918
2010	173	29.44	18.89	26.54	0.449	654.9866769	523.446677	53701	4.649420849	18.2788
2010	174	27.78	20.56	25.79	0.042	875.979023	289.275514	53696	4.55283479	19.3217
2010	175	31.67	20.56	28.61	0.009	1198.900125	496.9816905	53688	4.198211746	19.284
2010	176	28.33	16.67	25.12	0	1026.932597	378.4889336	53676	3.697927251	18.7005
2010	177	27.22	17.22	24.47	0	950.2680028	495.7837908	53661	3.266917293	18.5194
2010	178	30	19.44	27.1	1.034	899.8804639	446.1037453	53641	3.254399512	19.5278
2010	179	31.67	21.11	28.76	0.139	968.1793801	452.7681046	53619	3.449563097	19.8216
2010	180	26.67	19.44	24.68	0	1134.858296	228.4517279	53592	3.276305629	19.1265
2010	181	25	8.89	20.57	0	1057.861714	488.4842612	53562	2.669051006	16.8419
2010	182	22.22	10	18.86	0	983.406447	539.4237142	53529	2.301483438	16.0243
2010	183	22.22	10	18.86	0	883.5957742	474.1217962	53491	2.057528958	16.0015
2010	184	25	12.22	21.49	0	1060.72511	574.5579877	53451	1.929506198	16.6681
2010	185	30	13.33	25.42	0	1367.643937	574.7227143	53407	1.875452144	17.6613
2010	186	32.78	18.33	28.81	0	1530.310727	565.443018	53359	1.636334078	19.0081
2010	187	34.44	20.56	30.62	0	1773.996979	475.057271	53308	1.851554562	19.7662
2010	188	33.89	21.11	30.38	0	1710.002764	492.9856537	53254	1.646575899	20.3556
2010	189	33.89	21.11	30.38	0	1870.65705	496.0998383	53196	1.660089413	20.3258
2010	190	34.44	22.22	31.08	3.792	1197.390857	476.904338	53135	1.595224548	20.4674
2010	191	32.78	18.33	28.81	0.019	1312.467067	392.8769196	53071	1.807031091	20.0465
2010	192	27.78	14.44	24.11	0	1133.416809	525.5413365	53004	1.980573054	19.0256
2010	193	30	17.22	26.49	0.795	682.3568476	568.3926095	52933	2.300203211	18.609
2010	194	27.78	19.44	25.49	0.401	456.26382	344.053689	52860	3.536049583	19.2035
2010	195	25.56	19.44	23.88	0.925	524.0691574	206.5965368	52783	4.088965657	19.8845
2010	196	28.33	18.33	25.58	0	848.8172994	312.7365805	52703	4.440459256	20.2073
2010	197	30.56	20	27.65	0.487	485.2050045	501.7411631	52620	4.566775046	20.1076
2010	198	29.44	18.89	26.54	0.003	831.2836514	324.7284858	52535	4.703474903	20.3837
2010	199	30	18.89	26.94	0.003	1335.872475	494.1107234	52446	4.72538102	20.9314
2010	200	31.67	22.22	29.07	0.001	1172.862153	516.2557922	52355	4.431639911	20.6538
2010	201	30.56	18.33	27.19	0.459	546.8714812	459.8963854	52261	5.869193253	20.0519
2010	202	29.44	18.89	26.54	0.761	750.04759	326.6476689	52164	6.192379598	20.6109
2010	203	31.11	18.89	27.75	0	979.5500502	417.1403822	52065	6.120686852	20.5482
2010	204	29.44	20	26.85	0.001	1130.484838	516.7896773	51963	5.026803495	21.229
2010	205	33.89	22.22	30.68	0.008	1667.306151	440.4106213	51858	4.188681162	22.141
2010	206	32.78	22.22	29.88	0.201	1058.341802	478.5279318	51751	3.414001219	21.3097
2010	207	27.22	17.22	24.47	0	1104.311093	280.8925487	51642	2.765779313	19.9797
2010	208	27.78	16.11	24.57	0	989.1303315	564.1301378	51530	2.213716724	19.5328
2010	209	29.44	18.33	26.39	0.001	1062.703218	530.1708773	51417	1.928368218	20.0782
2010	210	30.56	20	27.65	0.312	1242.692256	499.9139181	51300	1.856390977	20.7657
2010	211	28.89	14.44	24.92	0	1191.594979	458.6983705	51182	1.52139809	19.2187
2010	212	25.56	13.33	22.19	0	1046.683227	492.6402217	51062	1.242166226	18.6617
2010	213	26.67	15.56	23.61	0.003	1014.72537	468.5463397	50939	1.194371063	19.2773
2010	214	27.78	18.33	25.18	0	799.9971262	406.3037292	50815	1.011440764	18.946
2010	215	25.56	19.44	23.88	0.122	482.7329491	319.319839	50688	0.967059541	19.4694
2010	216	28.33	21.67	26.5	0.21	643.2302471	250.2314478	50560	1.115708189	20.689
2010	217	32.22	20.56	29.01	0.016	1043.26288	360.6039064	50430	1.100203211	20.7004
2010	218	28.33	18.33	25.58	0.199	980.2004728	368.7530916	50298	0.975025401	19.9869
2010	219	25.56	15	22.65	0	950.096899	392.7425644	50164	0.727230238	18.8217
2010	220	26.67	13.89	23.15	0	1108.238357	462.3589718	50029	0.573176184	18.5913
2010	221	29.44	15	25.47	0	1455.063619	506.9994989	49892	0.468482016	19.2558
2010	222	32.22	17.22	28.1	0	1413.836914	509.5128834	49754	0.499491973	20.2338
2010	223	32.22	20	28.86	0	1543.52506	388.7245536	49614	0.59109937	20.7203
2010	224	31.67	20	28.46	1.738	407.2173777	505.668277	49472	0.688681162	20.2008
2010	225	23.33	16.67	21.5	0.057	456.9723593	142.4630043	49330	0.896931518	19.1713
2010	226	21.67	17.22	20.44	0	729.8387913	171.2793884	49186	1.055395245	18.8392
2010	227	24.44	19.44	23.07	0.924	306.2990266	208.9867047	49040	1.640032514	19.2092
2010	228	27.22	19.44	25.08	0	894.7940435	221.0361394	48894	2.928510465	20.7451
2010	229	30	16.67	26.33	0	1297.342299	449.2098429	48746	1.4208291	19.5086
2010	230	27.78	17.78	25.03	0	866.6201794	506.3022615	48597	0.234342613	18.8717
2010	231	25.56	14.44	22.5	0	779.0633917	270.5033852	48446	1.914570209	18.793
2010	232	30	16.11	26.18	0	1085.611031	468.7396625	48295	-0.332513717	19.2761
2010	233	29.44	16.67	25.93	0.435	1022.523487	461.6193631	48143	-1.003637472	19.3224
2010	234	28.33	17.22	25.28	4.741	519.1962818	306.8267764	47990	8.36136964	20.0331
2010	235	26.11	17.22	23.67	0.2	405.6654593	253.2890919	47836	9.434769356	18.8358
2010	236	20.56	15	19.03	0.053	371.05711	155.1791699	47681	8.979435074	18.1719
2010	237	20.56	15	19.03	0.085	441.8330614	172.3907628	47525	8.6579557	18.3874
2010	238	25	16.67	22.71	0.012	877.2703059	279.0671128	47368	8.094228815	18.3295
2010	239	24.44	10.56	20.62	0.095	748.6583543	455.2917814	47210	6.856390977	17.2271
2010	240	25	10.56	21.03	0	779.5339742	547.6961022	47052	5.613289982	17.0201
2010	241	27.22	12.22	23.1	0	791.4642562	536.0757896	46893	4.246006909	17.7762
2010	242	30.56	14.44	26.13	0	1024.022671	518.6078444	46734	5.599776468	18.6314
2010	243	30.56	16.67	26.74	0	1047.837738	511.5565456	46573	5.048282869	19.0667
2010	244	32.22	18.33	28.4	0	1262.067289	488.2495637	46413	4.426803495	19.4269
2010	245	32.22	18.33	28.4	0	1320.47912	492.8001341	46251	3.914143467	19.6894
2010	246	32.78	18.33	28.81	0.006	1314.304528	503.9149906	46089	3.338610039	19.4122
2010	247	31.67	15	27.08	0	1431.1609	400.319028	45927	2.697785003	17.6589
2010	248	19.44	10.56	17	0	721.8798257	265.2846998	45764	2.071184719	16.0627
2010	249	20	7.78	16.64	0	679.7199161	415.3873904	45600	1.724669783	15.9016
2010	250	25.56	8.89	20.97	0.002	1107.261922	457.7717499	45437	1.644015444	17.4676
2010	251	31.67	15	27.08	0	1890.012094	495.0344584	45272	1.497216013	18.2048
2010	252	23.89	13.33	20.99	0	1038.530398	503.5719828	45108	1.02993294	16.4787
2010	253	19.44	12.78	17.61	0.002	777.2339625	231.0999266	44943	0.820971347	16.1899
2010	254	20	8.33	16.79	0.202	748.6275351	290.650163	44778	0.590672628	15.7725
2010	255	22.78	10	19.26	0.459	216.9822357	447.5443705	44613	0.62595001	16.1405
2010	256	20.56	9.44	17.5	0.003	619.4254481	139.7689383	44447	0.712863239	16.2609
2010	257	25	11.11	21.18	0	1061.000073	452.1078792	44281	0.668339768	16.0061
2010	258	22.78	11.11	19.57	0	990.0210669	500.4573501	44115	0.583560252	15.9399
2010	259	23.89	10.56	20.22	2.56	372.4080067	503.9175863	43949	2.373460679	14.7664
2010	260	17.78	11.67	16.1	0.049	375.0209321	84.36151018	43783	9.384555985	15.8835
2010	261	17.78	8.89	15.33	0.006	375.7720653	239.2505674	43617	7.744299939	15.4301
2010	262	22.78	8.89	18.96	0.021	480.5608047	453.506214	43450	6.614854704	16.1724
2010	263	26.11	11.67	22.14	0	1081.792827	332.6857037	43284	5.68711644	15.9854
2010	264	20.56	7.22	16.89	0	643.9765751	493.7118306	43117	4.584982727	14.9817
2010	265	25	7.22	20.11	0.013	635.0261859	480.9962981	42951	3.92481203	16.6072
2010	266	30.56	15	26.28	0	782.4224953	375.1295812	42784	3.456533225	17.7442
2010	267	28.89	16.11	25.38	0	1217.707535	349.8233376	42618	2.99166836	18.4981
2010	268	31.11	17.22	27.29	0	1751.510632	405.625106	42452	2.38427149	18.486
2010	269	25.56	10	21.28	0.007	831.7510312	472.0965095	42286	1.585124975	16.1721
2010	270	18.33	10	16.04	2.374	164.7892971	268.5343305	42120	4.206319854	16.1908
2010	271	20	13.33	18.17	0.476	426.1130836	99.07493922	41954	9.620117862	17.2701
2010	272	22.78	12.22	19.88	0.011	487.310112	298.0669331	41788	8.95738671	15.7498
2010	273	18.33	12.22	16.65	7.102	126.6738748	248.5008769	41623	10.37687462	15.8431
2010	274	17.78	12.22	16.25	0.315	547.663525	17.46538666	41458	12.0067466	15.2564
2010	275	18.33	5.56	14.82	0	426.5965178	271.3559683	41293	11.52481203	13.7724
2010	276	16.67	5.56	13.61	0.08	575.8699083	458.080284	41129	10.9579557	13.5224
2010	277	16.67	6.11	13.76	0.539	278.6348763	337.7378674	40964	11.09821175	12.3979
2010	278	9.44	6.67	8.68	0.213	133.5831472	101.3366339	40801	11.75454176	11.7867
2010	279	11.11	7.78	10.19	0.153	190.0250428	71.4293378	40637	11.79337533	11.9233
2010	280	12.22	8.33	11.15	0.014	463.5628944	85.42313584	40474	11.78597846	12.9868
2010	281	18.89	7.22	15.68	0	655.8766755	338.7311719	40312	11.57886608	13.2369
2010	282	22.22	7.78	18.25	0.069	779.6958025	438.6341968	40150	11.24344645	13.7489
2010	283	22.78	6.67	18.35	0	692.8307783	417.9222036	39989	10.89095712	13.9065
2010	284	25	6.67	19.96	0.079909632	741.3670975	369.4599528	39828	10.76848202	15.0521
2010	285	24.44	12.78	21.24	0.523662809	521.5284483	277.3587617	39667	10.77744361	15.14013072
2010	286	20.56	3.33	15.82	0.040224015	566.6405233	344.9811684	39508	10.70062995	13.62415517
2010	287	15.56	3.89	12.35	0.147938583	231.1095259	441.6509441	39349	10.5462914	12.41782153
2010	288	12.22	6.11	10.54	0.048341628	468.0303829	77.99188589	39191	10.6549685	12.36702853
2010	289	13.89	6.11	11.75	0.006908119	761.6832293	307.2938539	39033	10.6923796	12.34065525
2010	290	16.11	6.67	13.51	0	685.4528063	422.1212059	38876	10.67829709	12.16678692
2010	291	19.44	5	15.47	0.08731825	555.0569026	392.1113378	38720	10.55055883	11.86788968
2010	292	11.67	5.56	9.99	0.159114079	282.4429187	124.3855309	38565	10.60062995	11.66667127
2010	293	13.33	2.78	10.43	0	414.7898982	271.7385645	38411	10.63306239	10.82724344
2010	294	15.56	3.33	12.19	0.008091048	699.3025205	347.0574259	38258	10.66336111	10.82337435
2010	295	13.33	3.33	10.58	0.070468828	490.3280585	282.2905054	38106	10.57858159	10.31830125
2010	296	10.56	3.33	8.57	0	557.1833776	197.7326571	37955	10.52267832	10.41053199
2010	297	21.67	8.89	18.15	0	1012.377238	300.9086076	37804	10.72154034	11.89030206
2010	298	22.78	10	19.26	0.267831436	789.3058313	292.8822202	37655	10.7663483	12.5493022
2010	299	20.56	10.56	17.81	0	358.6443465	159.6884315	37507	10.92794148	13.16804289
2010	300	20.56	11.11	17.96	0.939814336	632.6654051	209.8228366	37361	12.92225157	13.96789882
2010	301	21.11	12.22	18.67	0	1297.96509	332.1233642	37215	12.58768543	12.89208266
2010	302	17.78	6.11	14.57	0.01376125	689.7388036	358.5730895	37071	12.31044503	11.77118763
2010	303	9.44	1.11	7.15	0	444.2267866	155.9733536	36928	12.0378988	10.52773603
2010	304	14.44	1.67	10.93	0	808.029403	259.3493354	36787	12.00631985	10.69965079
2010	305	10.56	0	7.65	0	472.1719969	293.7119819	36647	11.84899411	9.839100232
2010	306	8.89	-2.78	5.68	0	319.3909071	371.8125668	36509	11.61869539	8.793936676
2010	307	8.89	-3.33	5.53	0	312.2789986	367.1941878	36372	11.49109937	8.421780307
2010	308	11.67	-1.67	8	1.06781907	83.69635213	355.4632834	36237	12.71713066	9.04301771
2010	309	7.22	4.44	6.46	0.148926353	175.9257212	54.8098496	36103	13.1435887	9.084042822
2010	310	7.78	0	5.64	0.016347056	172.1142941	100.7224709	35971	12.89223735	8.53308221
2010	311	6.67	-1.67	4.38	0	210.7492259	146.9910438	35841	12.72154034	7.87303637
2010	312	7.22	-1.67	4.78	0	361.6596132	185.7458068	35713	12.63235115	8.08175809
2010	313	12.78	1.67	9.72	0	368.5225518	335.5141348	35586	12.62111359	8.6289729
2010	314	13.33	2.78	10.43	0	419.5066571	310.0616716	35462	12.61442796	9.2427988
2010	315	15.56	-0.56	11.13	0	492.2783269	330.0317213	35339	12.44330421	8.57585134
2010	316	14.44	-1.67	10.01	0	481.0964535	337.9227122	35219	12.26350335	8.00312145
2010	317	15.56	-2.78	10.51	0	559.4893169	340.6536752	35100	12.11954887	7.74295129
2010	318	16.11	-2.22	11.07	0.029475129	579.0470585	335.348102	34984	12.08626295	7.556345811
2010	319	16.11	1.11	11.99	0.141646561	372.2928587	248.0123315	34870	12.11926438	8.530203816
2010	320	11.11	5.56	9.58	1.358695403	152.0840852	203.0266118	34759	13.16279212	8.75584193
2010	321	13.33	6.11	11.35	0.834522455	320.9556925	44.64180784	34649	13.94771388	9.069390996
2010	322	10	4.44	8.47	0.020112001	232.0091213	67.80163279	34542	13.54970534	8.454014323
2010	323	7.22	0.56	5.39	0.045513148	269.3813889	64.19658517	34438	13.30731559	7.0587
2010	324	8.33	1.67	6.5	0	277.0268488	233.4916997	34336	13.11542369	6.1665
2010	325	9.44	0	6.85	0	207.7341228	107.2860356	34237	13.30246735	5.3265
2010	326	10	0.56	7.4	0	298.3917824	257.8959578	34140	13.28149066	4.4798
2010	327	16.11	7.78	13.82	0.002832253	539.9005792	237.1552899	34046	13.10428272	1.624
2010	328	16.67	1.11	12.39	0	692.4428835	91.38558049	33954	14.17280677	1.5477
2010	329	6.11	1.11	4.74	1.713758143	181.2210866	238.7872793	33866	13.89850121	1.2199
2010	330	6.67	1.67	5.29	0.769087163	222.6173954	31.3071048	33780	14.66460065	0.8739
2010	331	5.56	-1.67	3.57	0	302.8723865	234.1558002	33697	15.60353254	1.0548
2010	332	1.67	-1.11	0.9	0	235.2704458	74.68713189	33618	13.49109937	1.3007
2010	333	5.56	-4.44	2.81	0	198.9130146	285.5329895	33541	13.27787035	1.2566
2010	334	7.22	-4.44	4.01	3.310067341	144.0269041	271.9509367	33467	14.00164731	0.9039
2010	335	15.56	6.11	12.96	3.143135068	217.6643005	35.0959667	33397	13.69941573	0.8135
2010	336	8.89	-3.33	5.53	0.001751674	225.6602918	59.24984248	33329	14.03201846	0.7302
2010	337	0	-3.89	-1.07	0.007292948	141.7869422	117.1770329	33265	14.65848782	0.8062
2010	338	0.56	-3.33	-0.51	0.003402872	141.1717228	105.6861222	33204	13.82443935	0.8844
2010	339	1.11	-5	-0.57	0.003878706	208.3396032	135.5414228	33146	13.42845616	1.1011
2010	340	0	-4.44	-1.22	0.000113745	185.6257966	181.157319	33092	13.59253759	0.8207
2010	341	-1.67	-5.56	-2.74	0.009670218	148.6670345	112.8574196	33041	13.45663955	0.7564
2010	342	-2.22	-6.67	-3.44	0	170.1421997	109.4410329	32993	12.92823298	0.8423
2010	343	-2.22	-7.78	-3.75	0.003	169.1102716	141.160885	32949	13.37183198	1.0173
2010	344	-1.11	-7.78	-2.94	0.141	92.37163869	278.3194871	32909	16.20355584	1.1066
2010	345	-1.11	-6.11	-2.49	0.001	125.3133763	68.04100754	32872	16.43809577	0.9999
2010	346	3.33	-6.67	0.58	1.151	53.99989583	214.0411109	32838	15.80673614	0.8258
2010	347	6.67	-5.56	3.31	0.019	286.7707843	43.10753475	32808	14.90557516	0.6753
2010	348	-2.78	-10.56	-4.92	0.026	157.1837901	185.3396376	32782	15.17518348	0.555
2010	349	-6.11	-10	-7.18	0.002	133.9123063	131.4019964	32759	15.21359784	0.5797
2010	350	-4.44	-10	-5.97	0	116.3516088	142.4384239	32740	14.98838802	0.7728
2010	351	-3.89	-10	-5.57	0	127.3264968	133.26696	32724	14.66260594	0.8115
2010	352	-1.11	-6.67	-2.64	0	177.9268931	146.6265591	32712	14.89907624	1.1004
2010	353	-0.56	-10.56	-3.31	0	125.3856509	173.7958048	32704	15.7636889	1.1447
2010	354	-1.67	-11.11	-4.26	0.006	122.916714	199.5150922	32699	14.9732668	1.2009
2010	355	-1.67	-4.44	-2.43	0.001	206.3356866	68.5882317	32698	14.614218	1.1409
2010	356	1.67	-5	-0.17	0	258.9447398	261.5004434	32701	13.49151491	1.4228
2010	357	2.78	-3.89	0.94	0.007	253.2793513	154.8191213	32707	11.87901263	1.2586
2010	358	1.11	-5	-0.57	0	228.4464871	146.2933032	32717	15.97313402	0.9008
2010	359	0.56	-5	-0.97	0.003	180.6076639	237.0277718	32731	16.31416602	0.7431
2010	360	-1.11	-6.11	-2.49	0.003	171.8522103	95.08027726	32749	16.78215203	0.828
2010	361	-2.78	-8.89	-4.46	0	194.8111694	94.07567897	32770	16.81213711	0.8388
2010	362	-2.22	-8.89	-4.06	0	193.5319113	263.7063792	32794	15.75287883	1.2885
2010	363	1.11	-6.11	-0.88	0	209.7445961	213.9627993	32822	15.01406195	0.9559
2010	364	4.44	-7.22	1.24	0.002	149.7636122	237.5259634	32854	14.23876106	0.8165
2010	365	3.33	-7.22	0.43	0	147.0148056	124.7939433	32889	14.1298882	0.728595105
