"Shalehills,"	2012	:	input	for	MTCLIM	v4.3				
MTCLIM	v4.3	OUTPUT	FILE	:	Mon	Jan	16	16:32:50	2012	
	yday	Tmax	Tmin	Tday	prcp	VPD	srad	daylen	SoilW	SoilT
		(degC)	(degC)	(degC)	(cm)	(Pa)	(Wm-2)	(s)	(%)	(deg C)
2008	1	4.44	-2.78	2.46	0.945	162.1754386	107.3576895	32928	22.39294208	0.998
2008	2	3.89	-5.56	1.29	0.02	187.1368421	242.3626217	32971	22.38555272	0.497
2008	3	-3.33	-11.11	-5.47	0	101.5438596	153.795681	33017	22.169246	0.362
2008	4	-4.44	-10.56	-6.13	0	79.34736842	210.6844795	33066	21.5355524	0.133
2008	5	3.33	-9.44	-0.18	0	213.3263158	184.7731816	33119	21.44464088	0.142
2008	6	5.56	-0.56	3.88	0.09	153.9578947	216.999156	33175	21.61134932	0.144
2008	7	7.78	5	7.01	0.035	91.50175439	201.3661912	33234	22.4698586	1.067
2008	8	18.89	6.11	15.38	0.025	564.2736842	215.6980118	33296	22.82566748	3.417
2008	9	19.44	8.33	16.39	0.06	537.6280702	150.879084	33362	22.77595724	4.745
2008	10	11.67	-0.56	8.31	0	356.7017544	204.7227424	33431	22.65671984	3.168
2008	11	7.78	-0.56	5.49	2.36	221.4175439	101.7295765	33503	22.65301255	2.273
2008	12	10.56	2.78	8.42	0	250.8	220.641115	33579	23.22356852	2.295
2008	13	6.11	-2.22	3.82	0	199.2421053	135.333987	33657	24.3438854	2.686
2008	14	3.89	-2.22	2.21	0.12	138.4210526	111.5724702	33738	23.12386239	2.21
2008	15	2.78	-2.78	1.25	0	119.7754386	163.3214476	33822	22.64075586	2.289
2008	16	-1.11	-2.78	-1.57	0	32.70175439	175.9470937	33909	22.49050807	2.279
2008	17	0	-3.33	-0.92	0.57	65.66315789	56.70431483	33999	22.17266034	2.201
2008	18	2.22	-2.22	1	0.33	96.6877193	269.1626188	34092	22.01855651	2.261
2008	19	2.78	-6.67	0.18	0	173.9508772	105.2589581	34187	21.84104103	2.203
2008	20	-1.11	-12.22	-4.17	0	146.877193	205.0519469	34285	23.03586208	2.398
2008	21	-10	-13.89	-11.07	0	37.60701754	306.8234165	34386	22.57465234	2.372
2008	22	-5	-13.89	-7.44	0	98.44210526	78.45701528	34489	21.59163797	2.24
2008	23	2.78	-6.11	0.33	0	167.4526316	314.5387484	34595	20.53370629	1.409
2008	24	-2.78	-7.78	-4.15	0	76.32280702	179.3039219	34703	20.3526102	1.334
2008	25	-2.22	-10	-4.36	0	109.6210526	321.8284598	34814	20.51497696	1.377
2008	26	-3.89	-10	-5.57	0.04	82.45614035	144.0329554	34926	19.69859854	1.421
2008	27	-2.78	-8.33	-4.31	0	82.82807018	171.1772159	35042	18.73940898	2.203
2008	28	-0.56	-5	-1.78	0	80.60350877	214.1984129	35159	19.2039239	1.251
2008	29	2.22	-2.22	1	0.4	96.6877193	60.02176994	35278	20.2585504	1.41
2008	30	5.56	-1.11	3.72	1.5	164.3087719	331.9026836	35400	20.9102209	1.39
2008	31	0.56	-8.89	-2.04	0	149.9578947	310.5629592	35523	24.4160484	1.234
2008	32	1.11	-7.78	-1.33	2.715	149.9017544	46.30497349	35649	24.18633869	1.353
2008	33	2.78	-2.22	1.4	0.005	110.245614	73.32927102	35776	22.99661312	1.238
2008	34	1.11	-5.56	-0.72	0	123.1789474	260.4022003	35905	24.58901927	1.628
2008	35	6.11	-5	3.06	0.02	238.077193	38.36863137	36036	23.84507929	1.576
2008	36	5	0.56	3.78	1.02	115.4596491	80.53543089	36169	24.13552161	1.311
2008	37	13.33	3.33	10.58	0.4	351.2280702	78.46806049	36303	27.79601972	-0.351
2008	38	16.67	1.67	12.54	1.01	536.0421053	45.74489572	36440	25.5123716	-0.5
2008	39	3.33	-1.11	2.11	0.06	103.8526316	123.2830467	36577	24.58377536	-0.415
2008	40	2.22	-2.22	1	0.78	96.6877193	138.0326833	36716	24.05510024	-0.327
2008	41	4.44	-1.67	2.76	0.21	143.4385965	181.0377947	36857	23.6846246	-0.772
2008	42	-1.11	-16.67	-5.39	0	170.5473684	361.1028676	36999	23.070524	-0.667
2008	43	-8.89	-16.67	-11.03	1.91	68.41403509	67.61667071	37143	22.58999168	-0.348
2008	44	-3.33	-11.67	-5.63	0.57	106.2385965	88.37750422	37287	22.53613892	-0.388
2008	45	0.56	-7.78	-1.74	0	138.5403509	386.4039751	37433	22.57017476	-0.7
2008	46	2.22	-7.78	-0.53	0	173.5438596	48.00670552	37581	22.61619032	-0.463
2008	47	2.78	-11.11	-1.04	0	213.5157895	360.9479711	37729	22.60678568	-0.692
2008	48	2.22	-10.56	-1.29	0.23	197.9649123	113.6486708	37879	22.67519324	0.088
2008	49	8.89	-0.56	6.29	0.44	257.7403509	149.1559073	38029	26.10161708	-0.016
2008	50	8.33	-4.44	4.82	0	295.9298246	268.2594484	38181	24.97619516	-0.546
2008	51	-1.11	-10	-3.56	0	128.9964912	278.4670527	38334	23.71798868	-0.385
2008	52	-3.89	-12.78	-6.33	0	106.4491228	408.2062515	38487	22.866197	-0.246
2008	53	-2.22	-12.78	-5.13	1.05	132.2526316	81.46348533	38642	23.24957827	-0.242
2008	54	-2.78	-5.56	-3.54	0.08	46.58245614	206.2048044	38798	22.68360703	-0.242
2008	55	1.67	-8.89	-1.24	0	172.5333333	423.5156852	38954	23.05755231	-0.24
2008	56	5	-8.89	1.18	0	247.7824561	333.055432	39111	23.0878722	-0.239
2008	57	2.78	-5	0.64	0.79	153.2701754	48.759836	39269	22.39909988	-0.238
2008	58	1.67	-3.33	0.29	0.01	102.5754386	224.413843	39428	23.06626952	-0.536
2008	59	-2.22	-11.67	-4.82	0	124.0421053	367.6338697	39587	22.96987196	-0.527
2008	60	1.67	-12.22	-2.15	1.565	197.9789474	241.4387501	39747	20.7966164	-0.399
2008	61	1.67	-5.56	-0.32	0	135.3192982	267.2369008	39907	20.01334424	-0.438
2008	62	4.44	-5.56	1.69	0	200.9473684	350.9771139	40068	20.29044524	-0.587
2008	63	15.56	1.67	11.74	2.165	483.3684211	414.2868009	40230	20.69148596	-0.117
2008	64	7.78	1.67	6.1	3.805	176.9894737	20.58868093	40392	24.1442204	-0.545
2008	65	4.44	-2.78	2.46	0	162.1754386	93.01013439	40555	25.95808436	-0.6
2008	66	7.78	-2.78	4.88	1.01	257.2491228	421.6082568	40718	24.50014124	-0.649
2008	67	7.22	-1.11	4.93	2.03	213.8035088	111.9551392	40882	27.44771216	-0.551
2008	68	3.33	-7.22	0.43	0	192.8140351	38.96711007	41046	26.37927788	-0.631
2008	69	0	-6.67	-1.83	0	114.4140351	427.5723125	41210	25.2167972	-0.665
2008	70	6.11	-3.89	3.36	0	223.8807018	307.5047976	41375	24.0876806	-0.534
2008	71	6.11	1.11	4.74	0.01	136.2807018	266.7002889	41540	24.23501996	-0.579
2008	72	4.44	-3.33	2.31	0	170.8210526	151.646709	41705	24.37362644	-0.501
2008	73	13.33	-3.33	8.75	0.015	456.6035088	411.4743253	41870	24.51380036	-0.52
2008	74	15	3.89	11.94	0.335	414.0701754	323.0455086	42036	26.14125092	-0.407
2008	75	10	1.11	7.56	0	265.5368421	247.5309227	42202	27.65069564	0.954
2008	76	5.56	-3.89	2.96	0	208.5403509	163.6050793	42368	26.17047248	2.152
2008	77	7.78	-3.89	4.57	0.1	272.2807018	462.9329948	42534	25.13585012	1.616
2008	78	5.56	2.22	4.64	1.52	93.68421053	53.51101848	42701	24.87341588	2.2
2008	79	12.78	1.67	9.72	0.21	362.0140351	76.81797187	42867	27.65606972	2.56
2008	80	3.89	-2.78	2.06	0	147.677193	336.8751888	43033	25.40746508	3.673
2008	81	6.11	-2.78	3.67	1.19	207.922807	468.9779398	43200	24.9576098	3.005
2008	82	5.56	-6.11	2.35	0	235.8736842	285.277683	43366	24.89188928	2.633
2008	83	6.11	-5.56	2.9	0	244.554386	510.7787885	43533	25.95763652	1.738
2008	84	5.56	-4.44	2.81	0	216	376.0483535	43699	25.28710808	1.686
2008	85	9.44	-3.89	5.78	0	324.4350877	479.0154337	43865	24.6586766	2.01
2008	86	12.22	1.67	9.32	0.125	339.4175439	323.6223883	44032	24.46431404	3.718
2008	87	6.67	2.22	5.44	0.615	128.1684211	57.97117517	44198	24.28842488	3.602
2008	88	7.22	-2.78	4.47	0	240.3929825	70.15533215	44363	25.54909448	3.686
2008	89	7.22	-4.44	4.01	0	262.7508772	531.2154326	44529	24.8725202	3.112
2008	90	10	-4.44	6.03	0	348.8912281	497.9753216	44695	24.37452212	3.311
2008	91	13.33	4.44	10.89	0.155	325.3473684	225.2769728	44860	24.18486188	4.223
2008	92	21.11	1.11	15.61	0.005	779.5157895	172.8890394	45025	24.18385424	5.858
2008	93	8.33	-2.78	5.28	0	274.5263158	466.8634875	45190	24.19202732	5.611
2008	94	9.44	-2.22	6.24	0.9	302.6736842	317.4336773	45354	23.93384756	4.857
2008	95	11.67	3.33	9.38	0.19	281.5789474	112.3247726	45518	25.20302612	4.898
2008	96	12.22	4.44	10.08	0	277.5157895	277.5338981	45681	25.44441188	5.659
2008	97	15	4.44	12.1	0	401.4596491	405.2141564	45845	24.72338948	6.034
2008	98	8.33	5.56	7.57	0	94.65263158	126.1629535	46007	24.36131084	6.164
2008	99	14.44	6.11	12.15	0	332.6807018	261.7510234	46169	24.1951622	6.269
2008	100	16.11	6.11	13.36	0	414.5754386	256.6507954	46331	24.12529916	7.402
2008	101	20.56	6.67	16.74	0.74	649.7052632	479.4604878	46492	24.03371588	8.328
2008	102	20	11.67	17.71	0.19	459.0105263	143.7465115	46653	24.52869104	9.633
2008	103	18.33	3.89	14.36	0.225	581.7052632	457.5626642	46813	25.47296168	10.282
2008	104	8.33	0.56	6.19	0.015	218.6315789	169.5090905	46972	24.86177204	9.135
2008	105	10.56	-2.22	7.04	0	340.6947368	401.2751692	47131	24.62811152	7.601
2008	106	15	0	10.88	0	484.5333333	561.5878957	47289	24.33040988	7.449
2008	107	20	2.22	15.11	0	701.6982456	552.2627197	47446	24.13257656	8.003
2008	108	26.11	7.22	20.92	0	1022.021053	554.4629847	47602	23.9723618	8.298
2008	109	28.33	10.56	23.44	0	1130.484211	537.8415763	47758	23.24957827	9.99
2008	110	27.22	12.22	23.1	3.12	984.1192982	416.5839038	47912	24.39162737	10.836
2008	111	15.56	12.78	14.79	0.24	144.8140351	114.7453709	48066	27.38165576	11.682
2008	112	21.11	11.67	18.51	0	532.8070175	275.9571123	48219	25.54752704	11.766
2008	113	22.22	10	18.86	0	666.6666667	413.340583	48370	24.82359368	12.252
2008	114	23.89	10.56	20.22	0	768.9403509	420.1529441	48521	24.50607512	12.5
2008	115	22.22	11.11	19.17	0	629.8245614	519.813544	48671	24.349667	12.771
2008	116	25	11.11	21.18	2.11	836.3719298	386.4334788	48819	24.14321276	12.605
2008	117	27.22	10.56	22.64	0.43	1034.203509	392.209431	48966	25.48874804	13.852
2008	118	19.44	7.22	16.08	2.13	568.5824561	410.8230982	49112	25.4267222	14.103
2008	119	11.11	5	9.43	0	217.0666667	85.5561443	49257	26.42182268	12.388
2008	120	13.89	2.78	10.83	0	387.2912281	439.6441772	49401	25.14671024	11.376
2008	121	12.22	3.33	9.78	0	304.245614	404.569364	49543	24.6144524	10.816
2008	122	15	3.89	11.94	0	414.0701754	256.0311173	49683	24.31518332	9.847
2008	123	23.33	9.44	19.51	0.66	761.6350877	312.3472894	49823	24.22169672	10.286
2008	124	19.44	10	16.85	0.82	484.7017544	286.4218775	49960	25.27815128	12.523
2008	125	16.67	2.78	12.85	0	516.7719298	382.8252355	50096	25.71009296	12.065
2008	126	20.56	5.56	16.43	0	674.7789474	539.717107	50231	24.84878468	11.838
2008	127	22.78	8.33	18.81	0	752.9473684	415.900959	50363	24.5635106	12.278
2008	128	26.11	12.78	22.44	0.21	870.1122807	487.7954253	50495	24.39870548	12.946
2008	129	21.11	6.67	17.14	0.99	684.2807018	207.1066688	50624	24.3871736	13.911
2008	130	12.22	7.78	11	0	179.5649123	103.0653977	50751	25.45627964	12.904
2008	131	18.33	6.67	15.12	0.05	518.9263158	380.0835348	50877	25.18063412	11.922
2008	132	16.11	1.11	11.99	2.35	518.3789474	223.787451	51000	24.72383732	11.325
2008	133	10	2.22	7.86	0	242.4	136.5087242	51122	26.23697672	9.906
2008	134	22.22	7.22	18.1	0.015	743.0105263	573.336625	51241	25.18231352	10.537
2008	135	21.67	10	18.46	0.115	628.645614	286.9728961	51358	24.7516034	11.561
2008	136	22.78	8.89	18.96	1.31	738.0280702	412.6879141	51473	24.66494636	12.598
2008	137	11.11	5.56	9.58	0.02	201.5017544	64.68117319	51586	25.64694752	12.051
2008	138	18.89	6.67	15.53	0.61	550.5192982	215.1321547	51697	25.30143896	10.867
2008	139	15.56	4.44	12.5	0.05	428.0421053	236.0624843	51805	25.3813784	10.861
2008	140	12.78	4.44	10.49	0.98	301.1508772	337.4939703	51910	25.08177344	10.283
2008	141	12.78	6.11	10.94	0.47	256.322807	149.0528896	52014	25.4647886	9.542
2008	142	15	6.11	12.56	0.12	359.3473684	291.2318379	52114	25.3841774	9.435
2008	143	13.33	6.67	11.5	0	264.9403509	377.579158	52212	25.2571028	9.539
2008	144	18.89	6.11	15.38	0	564.2736842	488.9290166	52308	24.86054048	10.346
2008	145	21.67	6.11	17.39	0	731.9578947	530.3457634	52400	24.71991872	10.572
2008	146	23.89	9.44	19.92	0	801.9157895	583.9905125	52490	22.68360703	11.669
2008	147	29.44	13.89	25.17	0	1131.242105	490.009624	52577	24.30062852	12.767
2008	148	27.22	7.22	21.72	0	1109.866667	328.5980403	52662	24.2567402	13.972
2008	149	19.44	6.11	15.78	0	596.3157895	585.2339268	52743	24.02039264	13.234
2008	150	24.44	8.33	20.01	0	871.8105263	570.3446546	52821	23.75314412	12.23
2008	151	26.11	12.22	22.29	0.22	889.5859649	459.8854545	52896	23.56549916	12.477
2008	152	27.22	17.78	24.62	0	745.4877193	352.9051143	52969	23.51354972	13.68
2008	153	25.56	10	21.28	0	913.1789474	486.2564576	53038	23.47951388	14.482
2008	154	25	13.33	21.79	0	757.5298246	542.0388867	53103	23.20409228	13.973
2008	155	27.78	15	24.26	2.01	930.4982456	379.1178573	53166	23.22010256	14.114
2008	156	21.11	17.78	20.19	0.15	232.4	90.04834194	53225	24.9951164	14.984
2008	157	28.33	19.44	25.89	0	758.1894737	345.9921548	53281	25.27792736	15.914
2008	158	32.78	20.56	29.42	0	1181.515789	525.1338733	53334	24.937457	17.242
2008	159	33.33	23.33	30.58	0	1067.480702	518.1060825	53383	24.63829988	18.081
2008	160	32.22	22.78	29.62	0	969.2842105	429.2805031	53429	24.31193648	18.655
2008	161	33.89	21.67	30.53	1.09	1251.333333	544.4346842	53471	23.96542028	19.122
2008	162	32.22	15.56	27.64	0.11	1357.122807	410.0632218	53510	23.86129748	19.035
2008	163	28.33	16.11	24.97	0	934.1684211	575.5212714	53546	24.59015708	18.325
2008	164	30.56	17.78	27.04	0.04	1079.873684	545.3852399	53577	24.17959976	17.875
2008	165	31.67	19.44	28.31	0.065	1115.017544	437.034623	53606	23.77934276	18.105
2008	166	25	15.56	22.4	0.005	661.0736842	181.2395301	53630	23.4691016	18.553
2008	167	27.22	16.67	24.32	0.68	803.0315789	548.206464	53651	23.08933328	18.182
2008	168	26.67	13.89	23.15	0.82	875.8596491	355.7539921	53669	22.72098488	17.647
2008	169	19.44	13.33	17.76	0.14	352.6877193	299.6079692	53682	23.92612232	16.542
2008	170	18.89	8.89	16.14	0	487.4385965	230.6295793	53693	23.62853264	15.688
2008	171	20	11.11	17.56	0	480.1614035	342.9473361	53699	23.311238	14.626
2008	172	26.11	13.33	22.6	0	849.5789474	471.4200588	53702	22.93494044	14.872
2008	173	28.33	15	24.67	1.01	982.3789474	515.138638	53701	22.43145632	15.723
2008	174	26.67	15.56	23.61	0.03	805.2491228	539.7242811	53696	22.90112852	16.699
2008	175	25.56	12.78	22.04	0.1	823.9719298	482.1374236	53688	22.54610336	16.722
2008	176	25	13.33	21.79	0	757.5298246	423.956815	53676	22.01653256	16.209
2008	177	27.22	15	23.86	0.15	879.6982456	441.7024282	53661	21.4790126	16.254
2008	178	28.33	18.33	25.58	1.2	822.3719298	305.0543614	53641	20.94361988	17.338
2008	179	26.67	19.44	24.68	0	595.7403509	276.8843134	53619	20.80344596	17.973
2008	180	28.89	18.89	26.14	0.04	847.0035088	350.0097029	53592	21.38429444	18.412
2008	181	27.22	17.22	24.47	0.14	774.9263158	308.2490012	53562	21.30961712	18.536
2008	182	25.56	15.56	22.81	0	708.1122807	417.4633376	53529	21.0306128	18.323
2008	183	22.78	13.33	20.18	0	584.9122807	300.6619244	53491	20.65621856	17.698
2008	184	27.22	15	23.86	0.02	879.6982456	560.1282857	53451	20.16829688	17.042
2008	185	25.56	18.33	23.57	0.02	561.3684211	231.8553748	53407	19.63324004	17.198
2008	186	23.89	17.78	22.21	2.12	450.7157895	199.8697127	53359	19.35054104	17.46
2008	187	24.44	16.11	22.15	0	587.5438596	256.6897839	53308	19.66201376	17.621
2008	188	27.78	17.22	24.88	0.01	827.3754386	370.6546738	53254	20.25663332	17.911
2008	189	27.22	18.89	24.93	0	682.4421053	297.1433942	53196	20.3851634	18.667
2008	190	30.56	18.89	27.35	0.44	1022.140351	501.4656629	53135	20.29380404	19.11
2008	191	26.67	16.11	23.76	0	779.2982456	190.4580091	53071	20.08589432	19.507
2008	192	26.67	15	23.46	0	829.9649123	565.0716361	53004	19.8499946	18.991
2008	193	28.33	16.67	25.12	0	908.1964912	471.9697353	52933	19.370246	18.418
2008	194	31.11	19.44	27.9	0.33	1052.449123	520.0338063	52860	19.09784732	18.646
2008	195	27.78	17.22	24.88	0	827.3754386	355.3178675	52783	18.53871908	19.972
2008	196	26.67	15.56	23.61	0	805.2491228	522.2584862	52703	18.16365308	19.392
2008	197	28.33	16.11	24.97	0	934.1684211	560.3976055	52620	17.50308908	18.511
2008	198	31.11	17.22	27.29	0	1166.105263	557.7513277	52535	16.88518184	18.566
2008	199	31.67	20	28.46	0.12	1083.508772	438.8623918	52446	16.32851672	19.295
2008	200	32.22	21.11	29.17	0	1081.25614	413.3001242	52355	15.84473756	19.944
2008	201	31.67	20	28.46	0.385	1083.508772	517.5354854	52261	15.38379824	20.216
2008	202	32.22	18.89	28.56	0.005	1208.421053	409.5625719	52164	14.90057888	20.129
2008	203	29.44	18.33	26.39	0.4	934.6666667	405.7065783	52065	14.7026336	20.179
2008	204	28.89	19.44	26.29	1.29	814.6315789	414.7642553	51963	14.60343704	20.255
2008	205	23.33	15	21.04	1.04	552.8491228	134.2814223	51858	14.68718312	19.715
2008	206	25	14.44	22.1	0	711.6350877	347.1107418	51751	15.9879344	18.624
2008	207	27.78	15.56	24.42	0	906.5894737	534.5950002	51642	16.94250536	18.131
2008	208	28.33	18.33	25.58	0	822.3719298	433.7922375	51530	16.45514348	18.627
2008	209	27.22	15.56	24.01	0	855.3824561	487.9174592	51417	16.207376	19.373
2008	210	28.89	17.22	25.68	0	935.6210526	493.0210721	51300	15.54893924	18.878
2008	211	30	17.78	26.64	0.52	1021.207018	475.7485444	51182	15.04030496	19.2
2008	212	29.44	18.33	26.39	0	934.6666667	331.2877091	51062	14.6248214	19.279
2008	213	28.89	17.78	25.83	0	907.4596491	465.3030487	50939	14.54611352	19.8
2008	214	28.33	18.89	25.74	0.01	791.0035088	488.1866181	50815	14.28737396	19.714
2008	215	27.78	16.11	24.57	0	881.4526316	403.8918087	50688	13.9804916	19.735
2008	216	25.56	15	22.65	0	733.6140351	401.7587619	50560	13.61796512	19.201
2008	217	27.78	16.67	24.72	0.1	855.0596491	479.2455879	50430	13.27279244	18.919
2008	218	24.44	19.44	23.07	0.39	394.4982456	146.635572	50298	13.09354448	19.173
2008	219	28.89	16.67	25.53	0.05	962.4561404	530.552428	50164	13.09298468	19.759
2008	220	26.67	14.44	23.31	0.1	853.4947368	348.5250954	50029	12.93568088	19.182
2008	221	23.89	12.22	20.68	0	712.2807018	435.3575924	49892	12.72586784	18.374
2008	222	24.44	13.89	21.54	0.02	690.2175439	512.9065603	49754	12.50172392	17.726
2008	223	25	14.44	22.1	0.04	711.6350877	470.5948724	49614	12.29750888	17.693
2008	224	21.67	14.44	19.68	0	453.9789474	312.5321596	49472	12.09889184	17.374
2008	225	24.44	12.78	21.24	0	734.6105263	409.6248125	49330	11.95670264	17.303
2008	226	27.78	13.89	23.96	0.55	974.7929825	429.6788924	49186	11.8107068	17.374
2008	227	25.56	15.56	22.81	0	708.1122807	329.5958401	49040	11.8392566	17.844
2008	228	25.56	12.78	22.04	0	823.9719298	440.5088354	48894	11.81563304	17.695
2008	229	25.56	14.44	22.5	0	757.9157895	485.5606204	48746	11.69885876	17.426
2008	230	27.22	15	23.86	0	879.6982456	479.3240941	48597	11.59440008	17.472
2008	231	29.44	17.22	26.08	0	991.4596491	519.4066383	48446	11.49397196	17.849
2008	232	26.11	10	21.68	0	957.4807018	374.7148773	48295	11.3606276	18.064
2008	233	25.56	11.11	21.58	0	880.4421053	558.3377853	48143	11.15775608	17.267
2008	234	29.44	12.78	24.86	0	1168.575439	536.697562	47990	10.99485428	17.061
2008	235	30	16.11	26.18	0	1099.087719	528.263379	47836	10.96630448	17.869
2008	236	27.78	17.78	25.03	0	798.3508772	487.5682976	47681	10.8680036	18.104
2008	237	31.11	18.89	27.75	0.13	1082.968421	468.8788006	47525	10.7789954	18.339
2008	238	27.78	12.78	23.65	0	1014.603509	525.5087823	47368	10.71820112	18.814
2008	239	26.11	13.33	22.6	0.003895833	849.5789474	521.6431053	47210	10.54902956	17.893
2008	240	26.67	13.89	23.15	0.634125	875.8596491	430.7492561	47052	10.40740016	17.274
2008	241	17.78	15.56	17.17	0.228345833	133.9719298	84.78493592	46893	10.34358296	17.045
2008	242	21.11	16.67	19.89	0	298.2175439	151.1140497	46734	10.57925876	17.041
2008	243	27.22	12.22	23.1	0	984.1192982	303.0324007	46573	10.96216196	17.741
2008	244	27.22	13.33	23.4	0	945.6491228	536.7217159	46413	11.09326712	17.521
2008	245	26.67	12.78	22.85	0	917.2561404	540.0980303	46251	11.1490232	17.394
2008	246	29.44	14.44	25.32	0	1110.919298	528.1481265	46089	11.15047868	17.292
2008	247	30.56	15.56	26.43	0	1179.347368	507.259673	45927	11.15831588	17.683
2008	248	31.67	16.11	27.39	0	1274.596491	481.1607814	45764	11.1081578	18.021
2008	249	31.11	20.56	28.21	0.05584375	986.9403509	451.3041667	45600	11.06247812	18.644
2008	250	22.78	12.78	20.03	0.001297917	607.6070175	102.935339	45437	11.03101736	18.844
2008	251	25	13.89	21.94	0.002595833	735.1508772	420.2074571	45272	10.91737796	18.134
2008	252	26.67	13.89	23.15	0.62999375	875.8596491	477.720094	45108	10.7795552	17.493
2008	253	20	9.44	17.1	0.0122	537.7473684	103.7893554	44943	11.04333296	17.433
2008	254	21.11	10.56	18.21	0.00726875	572.877193	485.4580151	44778	11.7222584	16.363
2008	255	20.56	13.33	18.57	0.68049375	426.7087719	303.217672	44613	12.05231648	15.951
2008	256	21.11	18.33	20.35	0.05988125	197.4105263	84.06061151	44447	12.535088	16.839
2008	257	24.44	19.44	23.07	0.0077875	394.4982456	200.9966803	44281	14.16724088	17.958
2008	258	29.44	18.89	26.54	0	904.1824561	374.1760172	44115	16.82505932	18.963
2008	259	22.78	11.67	19.72	0	649.7964912	298.3259232	43949	17.528504	18.972
2008	260	20	9.44	17.1	0.002595833	537.7473684	226.0229313	43783	17.5408196	17.123
2008	261	23.33	10	19.67	0	745.277193	475.0160029	43617	17.46289544	15.897
2008	262	21.11	7.78	17.44	0	656.7087719	442.9891369	43450	17.3952716	15.889
2008	263	20.56	8.33	17.19	0	606.2245614	419.7895989	43284	17.23080236	15.151
2008	264	21.11	10	18.06	0.003895833	591.4526316	409.7163764	43117	17.07237896	14.914
2008	265	24.44	10	20.47	0.002595833	827.4035088	407.9027962	42951	16.93769108	15.069
2008	266	19.44	7.78	16.24	0	553.522807	190.3744858	42784	16.772774	15.266
2008	267	21.11	8.89	17.75	0	625.8315789	410.743606	42618	16.54583108	14.794
2008	268	23.33	9.44	19.51	0	761.6350877	461.1823942	42452	16.26380384	14.642
2008	269	20.56	11.11	17.96	0.00519375	516.3438596	365.7231471	42286	15.9705806	14.774
2008	270	17.78	12.22	16.25	0.307825	297.5859649	85.06794872	42120	15.72326096	14.859
2008	271	21.11	16.67	19.89	0.688397917	298.2175439	146.5197597	41954	16.00058588	15.733
2008	272	22.22	13.89	19.93	0.0077875	519.9087719	216.5280942	41788	18.24124136	16.766
2008	273	20.56	10	17.65	0	555.0736842	270.7031689	41623	18.76375868	16.563
2008	274	18.33	10	16.04	0.233795833	417.4245614	189.9629987	41458	18.75021152	15.239
2008	275	15.56	8.33	13.57	0	320.5614035	173.7329329	41293	18.7919726	14.548
2008	276	12.78	8.33	11.56	0	185.5578947	241.5923071	41129	18.84705692	13.566
2008	277	15	5	12.25	0.103904167	388.154386	164.1662924	40964	18.86676188	12.757
2008	278	14.44	6.11	12.15	0	332.6807018	231.4760913	40801	18.87325556	11.956
2008	279	16.67	7.78	14.22	0.002595833	396.3438596	416.6164825	40637	18.99271688	12.25
2008	280	16.67	2.22	12.69	0.0181875	526.7087719	375.476627	40474	19.00604012	12.181
2008	281	16.67	2.78	12.85	0.01688125	516.7719298	432.2290881	40312	18.95812124	11.203
2008	282	16.67	7.22	14.07	0.035064583	412.7508772	218.5872478	40150	18.95442656	11.272
2008	283	21.67	8.89	18.15	0	662.4070175	389.0816224	39989	19.05485468	13.027
2008	284	21.11	6.11	16.99	0	696.8982456	422.8133725	39828	18.9962996	13.004
2008	285	21.11	5.56	16.83	0	708.7719298	416.9137066	39667	18.84504164	12.497
2008	286	22.78	7.78	18.65	0	767.0315789	407.251139	39508	18.71673548	12.554
2008	287	25	8.89	20.57	0	899.6140351	307.6376782	39349	18.59514692	12.824
2008	288	26.11	8.89	21.37	0	985.8385965	340.0631778	39191	18.46124276	13.075
2008	289	23.33	12.78	20.43	0	649.0245614	314.6322343	39033	18.35174588	14.333
2008	290	20	8.89	16.94	0	555.0877193	96.48724149	38876	18.22108856	14.643
2008	291	12.22	2.78	9.62	0	316.6035088	154.1217459	38720	17.88408896	12.982
2008	292	10.56	-1.11	7.35	0	324.5192982	289.662077	38565	17.57731856	11.163
2008	293	11.67	-1.11	8.15	0.003895833	365.1789474	411.4896254	38411	17.3622434	10.381
2008	294	16.11	-0.56	11.53	0.002595833	541.9649123	367.0695802	38258	17.1819878	9.391
2008	295	10.56	2.78	8.42	0	250.8	217.2820028	38106	17.0957786	9.674
2008	296	9.44	0.56	7	0	256.554386	281.3326044	37955	16.99087208	9.483
2008	297	12.22	0.56	9.01	0	359.8245614	390.2720612	37804	16.86480512	8.865
2008	298	13.89	6.67	11.9	1.540483333	290.6175439	167.6808392	37655	16.7750132	8.802
2008	299	14.44	3.33	11.39	0.005191667	400.4912281	43.15066521	37507	18.56279048	9.836
2008	300	16.67	3.89	13.15	0	494.9824561	364.9315329	37361	18.74293412	9.361
2008	301	8.89	3.89	7.51	0.007791667	161.8526316	251.9830713	37215	18.62918276	9.58
2008	302	6.67	1.11	5.14	0.18833125	153.4105263	98.94246176	37071	18.63097412	8.822
2008	303	4.44	-0.56	3.07	0.001297917	122.6666667	103.6515923	36928	18.66736112	7.453
2008	304	8.89	-0.56	6.29	0	257.7403509	369.0951695	36787	18.73296968	6.771
2008	305	18.33	3.33	14.21	0	592.1684211	351.7090076	36647	18.82287356	7.033
2008	306	17.78	4.44	14.11	0	540.7368421	231.4742118	36509	18.98140892	8.518
2008	307	9.44	3.89	7.92	0	182.1403509	187.2377103	36372	19.08765896	8.799
2008	308	14.44	7.22	12.46	0	300.322807	258.375031	36237	19.12180676	8.891
2008	309	13.89	8.89	12.51	0.01	218.3298246	100.4017395	36103	19.21529336	9.351
2008	310	18.33	8.89	15.74	0	454.7368421	257.0485669	35971	19.34751812	10.174
2008	311	20	10	17.25	0	519.4947368	242.4719176	35841	19.43428712	10.899
2008	312	21.67	9.44	18.31	0.24	645.9719298	308.8003248	35713	19.53628268	11.306
2008	313	12.78	4.44	10.49	0	301.1508772	134.4137582	35586	19.55733116	11.133
2008	314	8.33	1.67	6.5	0	195.6070175	146.6516271	35462	19.50023156	9.645
2008	315	3.89	0.56	2.97	0	84.36491228	155.6687512	35339	19.44290804	8.414
2008	316	4.44	0	3.22	0	111.4736842	123.6229308	35219	19.42141172	7.568
2008	317	10	0.56	7.4	1.51	276.2175439	228.2574359	35100	19.41738116	7.397
2008	318	8.89	5.56	7.97	0	115.0035088	38.74857078	34984	19.56046604	7.654
2008	319	11.67	8.33	10.75	0.59	135.8245614	94.88379696	34870	19.76759204	8.406
2008	320	13.33	2.22	10.28	0.05	374.4701754	41.89573923	34759	20.08242356	9.219
2008	321	5	0.56	3.78	0.04	115.4596491	114.7539612	34649	20.22125396	8.143
2008	322	2.78	-3.89	0.94	0	137.4175439	119.3574779	34542	20.22203768	6.811
2008	323	-0.56	-6.67	-2.24	0	103.4105263	215.6341251	34438	20.15855636	5.23
2008	324	0	-5.56	-1.53	0	99.83157895	222.922472	34336	20.09205212	4.086
2008	325	3.89	-2.78	2.06	0.15	147.677193	126.9326752	34237	20.12731952	4.205
2008	326	-1.11	-6.67	-2.64	0	92.70175439	141.2762742	34140	20.17109588	3.881
2008	327	-1.67	-6.11	-2.89	0	74.85614035	179.2016683	34046	20.14747232	3.404
2008	328	2.78	-6.67	0.18	0.68	173.9508772	289.8008482	33954	20.13784376	2.883
2008	329	2.22	-5.56	0.08	0.94	147.7754386	81.5214079	33866	20.14243412	2.473
2008	330	3.89	0	2.82	0.05	96.26666667	162.728952	33780	20.16449024	2.692
2008	331	1.67	0	1.21	0	39.15789474	90.9198445	33697	20.28238412	2.873
2008	332	5.56	-2.22	3.42	0	183.4526316	263.3917544	33618	20.44875668	2.709
2008	333	5.56	-1.11	3.72	0	164.3087719	229.6326884	33541	20.59027412	2.87
2008	334	5.56	-3.33	3.11	0.73	200.645614	268.2057549	33467	20.688575	2.65
2008	335	3.89	0	2.82	0.41	96.26666667	25.89807468	33397	20.778143	2.364
2008	336	6.11	0	4.43	0	159.4596491	120.3406043	33329	21.13854224	2.689
2008	337	2.22	-5	0.24	0	140.3578947	121.3659402	33265	20.98538096	2.796
2008	338	6.67	-4.44	3.61	0	246.7719298	271.7797253	33204	20.89155848	2.141
2008	339	7.78	-3.89	4.57	0	272.2807018	29.142883	33146	20.87935484	2.666
2008	340	-1.67	-8.33	-3.5	0	102.2736842	141.4201015	33092	20.84263196	2.119
2008	341	-1.67	-8.33	-3.5	0.03	102.2736842	134.0420084	33041	20.72429024	1.431
2008	342	-3.89	-9.44	-5.42	0	76.76491228	144.8592732	32993	20.65229996	0.941
2008	343	-1.11	-8.89	-3.25	0	118.2526316	78.60147501	32949	20.4489806	0.796
2008	344	11.67	-2.22	7.85	1.47	380.6105263	176.9446656	32909	20.3370206	0.637
2008	345	12.22	-1.11	8.56	1.365	386.2526316	30.39005841	32872	21.18657308	2.025
2008	346	1.67	-1.11	0.9	1.145	62.37894737	20.18929289	32838	21.8428826	2.567
2008	347	1.67	-6.11	-0.47	0	142.4561404	76.9372714	32808	22.22880872	2.155
2008	348	-0.56	-6.11	-2.08	0	96.21052632	241.9216033	32782	21.66777716	1.345
2008	349	9.44	-1.67	6.39	0.265	294.477193	251.2587381	32759	21.41429972	0.948
2008	350	13.89	-1.67	9.61	0.315	459.7824561	70.74098962	32740	21.42594356	1.875
2008	351	1.11	-2.22	0.19	1.07	70.59649123	68.16776678	32724	21.52793912	2.378
2008	352	3.33	-0.56	2.26	0	92.91929825	40.82190022	32712	21.57843308	2.082
2008	353	2.22	-0.56	1.46	3.18	64.64561404	88.91077544	32704	21.86046032	2.256
2008	354	5.56	-4.44	2.81	0.02	216	15.4468944	32699	21.97566716	1.841
2008	355	-2.78	-5.56	-3.54	0.12	46.58245614	137.640712	32698	21.9268526	1.233
2008	356	1.67	-15.56	-3.07	0	214.0280702	182.3404789	32701	21.70763492	0.901
2008	357	-7.78	-14.44	-9.61	0	66.78596491	261.2881035	32707	21.29047196	0.522
2008	358	1.11	-11.11	-2.25	3.335	179.6561404	149.4164502	32717	19.83689528	0.201
2008	359	9.44	-0.56	6.69	0.315	276.5824561	44.81274633	32731	20.90779268	0.005
2008	360	0	-5.56	-1.53	0	99.83157895	173.5758649	32749	22.80215588	-0.138
2008	361	2.78	-4.44	0.79	0.36	145.5578947	183.3182179	32770	22.0617644	0.219
2008	362	9.44	0	6.85	0.01	266.8421053	127.746539	32794	22.85970332	0.132
2008	363	12.22	0	8.86	0	369.1719298	142.5615136	32822	23.23555304	0.035
2008	364	6.67	-1.11	4.53	0	196.8912281	258.5131795	32854	23.07914492	-0.008
2008	365	3.89	-1.11	2.51	0.08	118.4	262.1079996	32889	22.78155524	-0.053
2009	1	1.67	-9.44	-1.39	0	264.1864349	155.0455539	32928	21.86784968	0.004
2009	2	-1.67	-9.44	-3.81	0	252.0662643	277.2813078	32971	21.31118456	0.01
2009	3	5.56	-5.56	2.5	0	338.4527851	154.4734834	33017	21.13619108	-0.3
2009	4	1.11	-7.78	-1.33	0	169.1340428	250.4367628	33066	20.49790712	-0.154
2009	5	3.89	-7.22	0.83	0.01	266.6382496	130.8097467	33119	20.6930534	-0.323
2009	6	3.89	-3.33	1.9	0.44	227.4430348	186.7836925	33175	20.909696	-0.227
2009	7	0	-3.33	-0.92	1.83	50.3711006	35.42534754	33234	21.07909148	-0.224
2009	8	2.22	-3.33	0.69	0	165.2672999	35.77024267	33296	21.6704642	-0.256
2009	9	-2.22	-5.56	-3.14	0	139.4944835	142.8110425	33362	21.35182604	-0.154
2009	10	-2.78	-5.56	-3.54	0.955	49.44759858	211.1762735	33431	20.51156624	-0.278
2009	11	-0.56	-5.56	-1.93	0.095	108.3172789	52.56209892	33503	20.77780712	-0.43
2009	12	-3.33	-6.11	-4.1	0	119.1433274	124.0813008	33579	20.8374818	-0.352
2009	13	-0.56	-6.67	-2.24	0	110.799546	187.169623	33657	20.67133316	-0.34
2009	14	0.56	-12.78	-3.11	0.085	98.79150683	92.89187267	33738	20.25349844	-0.526
2009	15	-7.78	-13.33	-9.31	0.165	98.60923509	191.2382177	33822	19.63256828	-0.83
2009	16	-8.89	-17.22	-11.18	0	94.76454865	195.8472972	33909	18.6195542	-1.001
2009	17	-13.33	-18.89	-14.86	0	68.80729022	272.8107297	33999	16.16819	-0.688
2009	18	-6.67	-19.44	-10.18	0.23	44.73166455	213.4915229	34092	15.70893008	-0.65
2009	19	-3.33	-7.78	-4.56	0.04	102.9768209	115.1936116	34187	16.26369188	-0.917
2009	20	-4.44	-12.22	-6.58	0	118.3555004	198.6965145	34285	16.38718376	-0.705
2009	21	-3.89	-12.78	-6.33	0	155.8506765	153.4316873	34386	16.21644476	-0.917
2009	22	-4.44	-12.78	-6.74	0	150.5775132	254.0363014	34489	15.94460588	-0.532
2009	23	4.44	-5.56	1.69	0	233.9671771	303.8885966	34595	15.89064116	-0.683
2009	24	10.56	-2.78	6.89	0.00445	438.592215	286.1560672	34703	16.48582052	-0.83
2009	25	-1.11	-12.78	-4.32	0.018333333	108.7026327	191.2816683	34814	14.73543788	-0.699
2009	26	-7.22	-12.78	-8.75	0.000683333	107.2715216	133.0920804	34926	12.7489316	-0.785
2009	27	-2.78	-10.56	-4.92	0.009583333	153.6160651	253.7081217	35042	12.7164632	-0.915
2009	28	-2.78	-6.67	-3.85	1.365966667	67.40931715	137.0974146	35159	12.84208232	-0.99
2009	29	1.67	-8.33	-1.08	0.008666667	211.3752309	56.87618346	35278	13.09791092	-0.965
2009	30	-0.56	-8.33	-2.69	0.087966667	154.5088648	275.4467797	35400	13.36000928	-1.048
2009	31	0	-11.11	-3.06	0.001216667	203.5899768	196.1663711	35523	13.21994732	-1.061
2009	32	-1.11	-11.67	-4.01	0	164.3049002	324.5517125	35649	13.0293914	-0.631
2009	33	9.44	-1.11	6.54	0.060466667	152.2796808	331.9759895	35776	14.07241076	-0.758
2009	34	3.89	-4.44	1.6	0.004133333	147.6905964	70.00790976	35905	14.9237546	-0.809
2009	35	1.67	-8.89	-1.24	0.09065	176.1774139	253.5008048	36036	15.22850972	-1.027
2009	36	-3.89	-16.11	-7.25	0.001	147.1429927	217.5034422	36169	14.79432884	-0.894
2009	37	-7.22	-15.56	-9.51	0	139.7014676	362.013222	36303	14.79432884	-0.843
2009	38	3.33	-8.33	0.12	0	237.8874798	360.4623765	36440	13.76183372	-0.843
2009	39	12.78	-2.78	8.5	0.000316667	419.5200398	217.6037947	36577	15.22537484	-1.086
2009	40	10.56	-2.22	7.04	0	386.0580639	216.7615209	36716	16.36378412	-0.866
2009	41	7.22	-2.22	4.62	0.157616667	200.2813618	341.0010853	36857	16.88764496	-0.675
2009	42	10	2.78	8.01	0.013283333	279.2561642	85.07354253	36999	17.83829732	-0.766
2009	43	16.67	5	13.46	0.499733333	600.4362025	260.6041515	37143	20.291117	-0.614
2009	44	6.11	1.11	4.74	0.0026	318.3311801	86.93394481	37287	20.63864084	-0.625
2009	45	2.22	-0.56	1.46	0.107133333	167.2721316	72.22969038	37433	20.62632524	-0.634
2009	46	0.56	-5	-0.97	0.005033333	227.6195056	123.0332881	37581	20.8122908	-0.772
2009	47	2.22	-5.56	0.08	1.66667E-05	272.1943102	351.0557396	37729	20.71107896	-0.708
2009	48	0.56	-7.78	-1.74	0	236.7528368	228.1077114	37879	20.52444164	-0.746
2009	49	3.33	-7.78	0.28	0.480608333	161.2265878	385.4023245	38029	20.4041966	-0.451
2009	50	4.44	-1.67	2.76	0.280633333	194.6061353	38.35342186	38181	20.55802964	-0.571
2009	51	2.22	-8.89	-0.83	0.008408333	251.1921475	190.9096885	38334	20.78239748	-0.468
2009	52	-3.89	-8.89	-5.26	0	223.1231013	225.5153169	38487	19.0360454	-0.576
2009	53	3.33	-7.22	0.43	0.093208333	260.7307378	391.3288132	38642	18.65616512	-0.575
2009	54	0	-6.67	-1.83	0.049475	229.8927661	202.9565957	38798	18.8815406	-0.682
2009	55	-3.89	-11.11	-5.87	0	188.3726894	209.4387226	38954	16.93925852	-0.811
2009	56	-0.56	-11.11	-3.46	0	249.314548	429.0285597	39111	16.33870508	-0.78
2009	57	8.33	-7.22	4.06	0.015366667	428.006074	414.2311747	39269	17.11178888	-0.602
2009	58	12.78	2.78	10.03	0.744733333	279.7922266	197.8326063	39428	18.3099848	-0.579
2009	59	12.78	-3.89	8.19	0.000133333	487.0341169	86.0709829	39587	19.35322808	-0.698
2009	60	1.67	-4.44	-0.01	0	345.0601914	354.4487634	39747	19.91952176	-0.721
2009	61	3.89	-8.33	0.53	3.33333E-05	354.7241505	289.1103315	39907	20.23838384	-0.913
2009	62	-5.56	-13.89	-7.85	0	201.4583111	340.3241739	40068	20.15038328	-0.784
2009	63	-2.22	-13.89	-5.43	0	249.8397379	454.3288839	40230	19.28717168	-0.788
2009	64	2.78	-11.11	-1.04	0	353.4684994	460.430506	40392	18.28557752	-0.691
2009	65	11.67	-7.22	6.47	0	543.6752737	439.2025151	40555	18.52125332	-0.515
2009	66	20	8.33	16.79	0.004733333	744.2677937	296.3650474	40718	20.36848136	-0.581
2009	67	21.67	12.78	19.22	0.840566667	457.0879083	174.0303801	40882	28.73043788	-0.369
2009	68	15	6.11	12.56	0.508116667	356.2603444	44.59771963	41046	29.84264852	0.367
2009	69	10	1.67	7.71	0.06885	242.4558126	118.2215482	41210	27.17822444	0.828
2009	70	7.22	2.22	5.85	0.024183333	404.9297895	78.0172568	41375	26.52650528	1.824
2009	71	17.22	-2.78	11.72	3.33333E-05	795.2153365	390.1841358	41540	26.04776432	1.752
2009	72	2.78	-5	0.64	0	319.2155879	317.3720177	41705	25.46277332	1.218
2009	73	6.67	-5	3.46	0	326.2932209	466.8058276	41870	25.16652716	1.771
2009	74	11.11	-1.11	7.75	0	333.8742675	389.5550718	42036	25.18466468	2.851
2009	75	13.89	2.22	10.68	0.651216667	274.9745386	392.044595	42202	25.69609796	3.429
2009	76	11.67	3.33	9.38	0.127316667	267.5401823	124.9391758	42368	26.06500616	3.697
2009	77	12.78	2.78	10.03	0	448.9978894	256.0915503	42534	25.36245716	4.183
2009	78	22.78	3.89	17.58	0.003683333	1053.709672	434.3761973	42701	25.04169176	5.176
2009	79	12.78	-2.22	8.65	0.004033333	629.3741589	321.2826183	42867	24.66326696	3.832
2009	80	6.67	-6.11	3.15	0	449.3988361	337.8049172	43033	24.33712748	2.884
2009	81	8.33	-6.11	4.36	0	434.1245019	406.4468056	43200	24.16146224	2.991
2009	82	12.22	-3.33	7.94	0	772.7372812	355.0930683	43366	24.0350594	3.077
2009	83	7.78	-6.67	3.81	0	602.8603107	528.8867755	43533	23.83050848	2.799
2009	84	8.89	-6.11	4.76	0.000116667	618.5631465	512.8243438	43699	23.68081796	3.043
2009	85	10	2.22	7.86	1.215633333	109.8442733	258.5353699	43865	24.6418826	3.447
2009	86	5.56	1.67	4.49	0.001033333	272.2866165	45.54219658	44032	25.22564204	4.173
2009	87	14.44	2.78	11.24	0.335508333	168.8633258	400.4028463	44198	25.19586068	5.351
2009	88	12.22	7.22	10.85	0.7059	227.6366565	89.91249465	44363	25.35238076	5.821
2009	89	10.56	1.11	7.96	0.068941667	343.3438813	145.1713041	44529	25.10226212	4.921
2009	90	3.89	0	2.82	0	353.6276041	159.5307081	44695	24.66528224	5.024
2009	91	16.11	0.56	11.83	0.710925	256.8713881	507.5134195	44860	24.91137032	5.655
2009	92	8.89	6.11	8.13	0.019375	314.3319836	105.789628	45025	25.0236662	6.692
2009	93	18.89	6.67	15.53	1.815816667	278.580352	461.6348971	45190	26.17528676	8.286
2009	94	15.56	3.33	12.19	0.02295	640.2511348	79.33589099	45354	25.23314336	7.301
2009	95	8.89	2.22	7.06	0	645.7900798	374.2813173	45518	24.67838156	7.291
2009	96	18.89	2.78	14.46	0.451816667	490.0568742	525.2196537	45681	24.9727244	7.893
2009	97	12.22	-1.11	8.56	0.01775	442.7006644	176.3503981	45845	24.7157762	6.337
2009	98	3.89	-0.56	2.67	0.001783333	422.2031368	243.2642859	46007	24.38840516	5.843
2009	99	10	-0.56	7.1	0	604.6907822	351.3453616	46169	24.21565088	5.987
2009	100	15	1.11	11.18	0.184116667	399.0540823	542.5718849	46331	24.11645432	6.256
2009	101	9.44	3.89	7.92	0.205133333	503.8963151	102.5447389	46492	24.32996204	6.695
2009	102	12.78	-1.11	8.96	0	778.1438675	444.5026901	46653	24.24061796	6.622
2009	103	10	-2.78	6.49	0.000966667	547.4747602	572.1304552	46813	24.05006204	6.205
2009	104	12.78	-1.11	8.96	1.050633333	119.0061886	368.7307332	46972	24.78619904	6.165
2009	105	7.78	5	7.01	1.37	116.3689887	46.34452908	47131	25.91867444	6.151
2009	106	7.78	-0.56	5.49	0.000516667	416.5154791	127.4696864	47289	24.94316696	6.414
2009	107	18.33	1.11	13.6	0	1103.46758	564.2099018	47446	24.55948004	7.727
2009	108	21.11	4.44	16.53	0	1361.317267	569.9938238	47602	24.36052712	8.88
2009	109	23.33	10.56	19.82	0.003033333	1347.874024	541.9207463	47758	24.2253914	9.785
2009	110	20	5	15.88	0.924775	348.6805386	298.7421523	47912	24.61870688	8.751
2009	111	7.78	4.44	6.86	0.536141667	175.0739881	73.9256231	48066	25.19977928	8.364
2009	112	17.22	5	13.86	0.023133333	482.297071	306.7959311	48219	24.71879912	7.954
2009	113	11.11	2.22	8.67	0.143816667	464.8843314	330.8135415	48370	24.56104748	7.633
2009	114	12.78	3.33	10.18	0.030466667	606.7031419	394.161765	48521	24.39098024	8.147
2009	115	23.89	5	18.69	0	1212.598359	434.9593392	48671	24.35728028	10.287
2009	116	30	13.89	25.57	0	2066.634528	432.1242549	48819	24.30409928	12.182
2009	117	31.11	15	26.68	0	2221.143246	546.1681371	48966	24.2007602	13.595
2009	118	32.22	16.67	27.94	0	1939.849546	541.3218154	49112	24.01143584	14.335
2009	119	29.44	6.67	23.18	0.0001	1225.275917	493.4652334	49257	23.92153196	13.641
2009	120	19.44	7.22	16.08	0.090716667	512.5185758	402.8471893	49401	23.73153584	12.382
2009	121	17.22	11.11	15.54	0.344066667	329.7594936	118.7372182	49543	23.8363304	12.219
2009	122	21.67	11.11	18.76	0.6231	726.5510594	233.1827788	49683	24.62329724	12.668
2009	123	17.78	8.33	15.18	0.264616667	280.056739	326.1133011	49823	24.34059824	11.748
2009	124	14.44	8.33	12.76	1.5003	146.8725817	177.5458567	49960	25.24400348	11.262
2009	125	11.11	9.44	10.65	0.673058333	196.1258044	78.52561083	50096	25.2162374	11.062
2009	126	13.33	9.44	12.26	0.68195	211.5938044	127.9462881	50231	25.47184208	11.431
2009	127	18.89	11.11	16.75	0.897275	522.6763283	230.7450906	50363	25.55469248	12.409
2009	128	21.11	11.11	18.36	0.219233333	366.700773	325.696267	50495	24.76515056	12.601
2009	129	22.22	12.78	19.62	0.023866667	757.6694342	263.7159845	50624	24.640763	13.431
2009	130	24.44	8.89	20.17	0.001066667	1085.621956	307.7087545	50751	24.33925472	13.076
2009	131	15.56	6.11	12.96	0.02545	368.7424103	261.8315742	50877	24.05364476	11.696
2009	132	15.56	3.89	12.35	0.008583333	620.5911312	217.8732941	51000	23.91626984	11.374
2009	133	16.67	4.44	13.31	0	702.4807696	483.4381675	51122	23.76557168	11.443
2009	134	21.67	7.22	17.69	1.647083333	282.4456908	479.5092992	51241	24.7913492	12.235
2009	135	20	11.11	17.56	0.424166667	606.2392927	242.6118813	51358	24.98492804	13.155
2009	136	24.44	11.11	20.78	1.875883333	472.1160068	503.6610067	51473	25.12476608	14.137
2009	137	26.11	7.78	21.07	0.455283333	1279.800578	327.6518823	51586	25.382498	13.956
2009	138	15	3.89	11.94	0	799.4811004	499.9752597	51697	24.54582092	12.246
2009	139	15.56	2.78	12.04	0	674.835982	604.3722614	51805	24.19325888	11.628
2009	140	22.22	5.56	17.64	0	1029.752062	598.2218455	51910	23.98154252	12.197
2009	141	28.33	11.11	23.6	0	1433.767087	585.7771946	52014	23.761877	12.895
2009	142	29.44	13.89	25.17	0.00005	1243.95323	597.8737192	52114	23.49070988	13.536
2009	143	28.89	15.56	25.22	0.097833333	798.0652995	447.9868996	52212	23.27552276	14.184
2009	144	27.78	15.56	24.42	0.219808333	616.3887921	352.2021679	52308	23.15035148	14.514
2009	145	29.44	16.11	25.78	0.215925	1196.570604	385.4783015	52400	23.3509838	14.992
2009	146	26.11	12.22	22.29	0.580183333	513.7200429	532.2553629	52490	23.19020924	14.163
2009	147	12.78	9.44	11.86	0.1383	127.795897	92.49831675	52577	23.56785032	12.955
2009	148	16.67	10.56	14.99	0.526358333	156.1560378	162.9570088	52662	23.90417816	13.694
2009	149	22.78	16.67	21.1	1.356208333	345.4430767	231.3654703	52743	25.62970568	14.697
2009	150	20	12.78	18.01	8.33333E-05	761.5117931	184.9645217	52821	24.65240684	14.123
2009	151	21.67	10	18.46	0	917.7313413	544.0036298	52896	24.18206288	13.559
2009	152	21.11	5	16.68	0.002316667	748.3944377	546.4939115	52969	23.820656	12.884
2009	153	22.78	8.33	18.81	0.405066667	391.0654887	477.6434632	53038	23.84875796	13.724
2009	154	23.89	15.56	21.6	1.566466667	162.8550763	323.5355818	53103	24.90767564	14.14
2009	155	16.67	11.11	15.14	0.04065	320.1857322	54.65613362	53166	25.23571844	13.599
2009	156	17.78	11.11	15.94	0.610183333	142.9780977	217.9634382	53225	25.19574872	13.565
2009	157	14.44	12.22	13.83	0.05565	457.0342452	73.79384771	53281	24.75126752	14.087
2009	158	24.44	12.78	21.24	0	781.4197036	556.5243934	53334	24.4498712	14.267
2009	159	27.22	15.56	24.01	1.172641667	665.3370689	531.5557575	53383	24.62632016	15.273
2009	160	27.78	18.33	25.18	0.816958333	607.6812536	390.751633	53429	25.8348164	16.247
2009	161	28.33	16.67	25.12	0.053866667	534.0691892	371.963008	53471	24.89569592	16.346
2009	162	25	17.78	23.01	0.770391667	246.4732931	323.1155111	53510	24.89759924	16.299
2009	163	22.22	17.78	21	0.602158333	384.3381698	157.7462929	53546	25.66105448	16.572
2009	164	23.89	16.11	21.75	0	696.7668218	266.0981391	53577	25.02389012	16.399
2009	165	25	11.11	21.18	0.000166667	901.0650168	364.0599933	53606	24.51301664	15.885
2009	166	25	12.78	21.64	0	948.8202684	561.4360619	53630	24.06204176	15.544
2009	167	26.67	15	23.46	0	568.0934847	550.5218356	53651	23.74150028	15.534
2009	168	22.22	15.56	20.39	1.91045	280.2558962	188	53669	24.96063272	15.222
2009	169	16.67	13.89	15.9	0.416083333	268.2314446	135.68088	53682	25.77626132	15.115
2009	170	21.67	15.56	19.99	0	551.8582417	214.8344291	53693	24.96052076	15.599
2009	171	24.44	16.11	22.15	3.7643	322.3490787	340.8653606	53699	26.15804492	16.312
2009	172	24.44	16.67	22.31	0.360316667	646.0100973	146.2408476	53702	25.67146676	16.73
2009	173	23.89	15.56	21.6	1.66667E-05	828.393316	276.2871455	53701	25.00899944	16.765
2009	174	27.22	15.56	24.01	0	1047.297317	400.843899	53696	24.51100136	16.864
2009	175	27.22	14.44	23.71	0.0001	1122.611537	558.2149084	53688	24.04614344	16.91
2009	176	29.44	16.11	25.78	0	996.8158224	575.9127916	53676	23.5838606	17.137
2009	177	30.56	18.89	27.35	0.1578	778.0274218	507.4936546	53661	23.2317464	17.779
2009	178	26.67	15.56	23.61	0	921.1815165	403.7957905	53641	22.80148412	17.517
2009	179	26.67	15.56	23.61	0.036816667	359.5379371	491.8327086	53619	22.3612574	16.945
2009	180	21.11	13.89	19.12	0.392533333	571.5133907	116.2824116	53592	22.30494152	16.754
2009	181	26.11	15.56	23.21	1.373766667	317.4763943	487.6221388	53562	22.74796724	16.906
2009	182	22.78	13.89	20.33	0.00705	384.479247	309.9693998	53529	23.63211536	16.577
2009	183	24.44	15	21.85	1.606516667	292.929466	338.1314988	53491	24.7353692	16.874
2009	184	22.22	15.56	20.39	0.00525	508.6422429	242.0939926	53451	24.51783092	16.708
2009	185	22.22	15	20.24	0	843.0129499	313.2517086	53407	24.17086688	16.643
2009	186	23.33	11.11	19.97	0	777.5442578	469.425514	53359	23.69839568	16.135
2009	187	23.89	12.22	20.68	0	853.5576772	547.6865574	53308	23.17229564	15.9
2009	188	27.22	13.89	23.56	0	1176.476636	523.280993	53254	22.56536048	16.103
2009	189	26.11	11.67	22.14	0	808.670287	512.0840101	53196	21.83750852	15.864
2009	190	22.78	12.78	20.03	0	719.4379253	403.718453	53135	21.16283756	15.761
2009	191	26.11	13.89	22.75	0	704.8211986	450.6709691	53071	20.54448248	15.973
2009	192	26.11	16.67	23.51	1.671016667	447.6598914	412.1833069	53004	20.51548484	16.588
2009	193	25.56	17.22	23.26	0.033116667	901.6685182	259.7328699	52933	21.77828168	17.044
2009	194	25	14.44	22.1	0.000566667	1029.287788	547.7308551	52860	21.30189188	16.399
2009	195	24.44	11.11	20.78	0.017533333	973.6450359	547.9027907	52783	20.73682976	15.711
2009	196	25	11.11	21.18	0.000616667	832.3341124	585.0799195	52703	20.15206268	15.645
2009	197	27.78	13.33	23.81	0.390866667	986.6266601	537.9431965	52620	19.60525004	16.798
2009	198	30	18.33	26.79	0.475958333	450.5324709	469.2875036	52535	20.1556454	16.918
2009	199	22.78	13.89	20.33	0.791058333	540.2532892	156.5801205	52446	21.1767206	16.599
2009	200	20.56	13.33	18.57	0.0065	532.8747459	291.0120141	52355	20.18061248	16.136
2009	201	23.89	14.44	21.29	0	675.0930108	439.14927	52261	19.57132616	16.273
2009	202	26.11	15.56	23.21	0.097	693.6484257	380.9887854	52164	19.04903276	16.895
2009	203	25	15.56	22.4	0.500133333	372.1661505	389.7421492	52065	18.68460296	17.034
2009	204	25	16.67	22.71	2.318016667	320.5875517	253.5307815	51963	19.81371956	17.87
2009	205	25.56	17.22	23.26	0.1648	532.685326	273.2542134	51858	21.28991216	18.019
2009	206	26.11	15	23.06	0.383116667	481.6771529	418.1852331	51751	21.00676532	17.595
2009	207	27.78	16.67	24.72	0.291816667	476.1631711	384.4510476	51642	21.1935146	18.003
2009	208	26.11	18.33	23.97	0	732.9878967	324.7343295	51530	20.99299424	18.033
2009	209	27.78	17.22	24.88	0	788.7211924	458.2545462	51417	20.46275168	18.141
2009	210	28.89	18.33	25.99	1.169833333	256.614042	470.5817154	51300	20.52265028	18.219
2009	211	22.78	18.33	21.56	0.069583333	508.5388685	163.5237584	51182	21.08670476	18.586
2009	212	27.78	19.44	25.49	1.46685	246.626154	365.4246602	51062	23.01107324	18.909
2009	213	22.22	16.67	20.69	0.0032	528.009103	122.565441	50939	23.73802952	18.836
2009	214	27.22	17.22	24.47	0.120166667	503.28073	506.6144249	50815	23.06862068	18.909
2009	215	25.56	14.44	22.5	0	667.5599216	272.2438644	50688	22.54184888	18.378
2009	216	25.56	15.56	22.81	0	624.4665166	507.4447785	50560	21.75600164	18.155
2009	217	28.33	16.67	25.12	0	756.4169314	494.616855	50430	21.00620552	18.519
2009	218	26.11	12.78	22.44	0	846.0942866	320.9862619	50298	20.21599184	17.737
2009	219	25	12.22	21.49	0	668.5008427	428.4242485	50164	19.48646048	17.004
2009	220	24.44	13.89	21.54	0.027166667	634.6702583	421.8924624	50029	18.84828848	17.234
2009	221	26.11	16.11	23.36	0.42765	442.6475989	406.1789064	49892	18.62862296	18.175
2009	222	29.44	20	26.85	0.216141667	806.3058002	245.3757889	49754	18.32756252	19.364
2009	223	32.22	20	28.86	0.231791667	614.5217081	433.2942315	49614	17.92327496	19.503
2009	224	27.78	18.33	25.18	1.749625	449.6914643	273.9751375	49472	18.03758612	19.143
2009	225	26.67	16.67	23.92	0.089208333	530.6079843	277.6136834	49330	19.3461746	18.841
2009	226	26.67	17.78	24.22	0	626.9497425	466.979425	49186	18.87515888	18.969
2009	227	28.89	17.78	25.83	0	794.0750932	471.8079119	49040	18.44579228	19.32
2009	228	30.56	19.44	27.5	0	901.5865104	517.4930666	48894	17.89786004	19.539
2009	229	31.11	20	28.06	0	1105.731535	512.0612768	48746	17.28958136	19.712
2009	230	32.78	20.56	29.42	0.431825	611.56991	520.5570508	48597	16.8298736	19.748
2009	231	30.56	20.56	27.81	0.015741667	676.9374703	353.0740618	48446	16.71589832	20.085
2009	232	29.44	20	26.85	0	749.152435	335.0939435	48295	16.3842728	20.131
2009	233	29.44	20.56	27	0.485283333	492.655685	360.8208255	48143	16.08713096	20.391
2009	234	26.67	18.89	24.53	0.001233333	559.8637232	286.8407377	47990	15.93620888	20.066
2009	235	26.67	17.78	24.22	0	846.3101499	300.8905427	47836	15.57301064	19.592
2009	236	25.56	14.44	22.5	0	576.5525923	432.6559426	47681	15.0603458	18.649
2009	237	25.56	14.44	22.5	0	667.7699726	383.9634929	47525	14.62000712	18.391
2009	238	27.22	16.11	24.17	0	897.3468059	508.4194604	47368	14.20631492	18.531
2009	239	28.89	17.22	25.68	0.02615	534.4074612	462.4241898	47210	13.9250714	18.794
2009	240	19.44	16.67	18.68	0.91275	219.3969411	128.512093	47052	13.85151368	18.306
2009	241	20	16.67	19.08	2.108033333	330.555097	72.7311539	46893	16.21308596	18.537
2009	242	26.11	14.44	22.9	0	761.1388359	320.4080541	46734	16.1866634	17.841
2009	243	22.22	11.11	19.17	0	540.8998917	480.1938247	46573	15.7533782	16.555
2009	244	18.89	7.78	15.83	3.33333E-05	474.5543285	398.0785771	46413	15.45198188	15.403
2009	245	20.56	8.33	17.19	0	529.277754	538.6507319	46251	15.1594304	15.087
2009	246	23.33	10	19.67	0	586.9153305	521.0623576	46089	14.81750456	15.132
2009	247	23.89	10.56	20.22	0	627.404906	512.5118558	45927	14.4714362	15.437
2009	248	25	12.22	21.49	0	667.4029684	508.0795167	45764	14.08662968	15.798
2009	249	25.56	12.78	22.04	0	723.5662468	474.4047149	45600	13.68905972	15.889
2009	250	25	13.89	21.94	0.009341667	385.7817956	454.5401105	45437	13.51261076	16.262
2009	251	20	17.22	19.24	0.003408333	409.4359562	150.4898834	45272	13.41240656	16.427
2009	252	22.22	16.11	20.54	0.000916667	474.4212481	208.9722001	45108	13.2118862	16.492
2009	253	22.78	15	20.64	0.013333333	708.5729684	236.9511826	44943	12.92000648	16.323
2009	254	20	12.78	18.01	2.071841667	218.3804631	440.6224485	44778	12.69530276	15.202
2009	255	15	12.22	14.24	0.056508333	192.5441047	62.22258086	44613	12.90276464	15.238
2009	256	19.44	13.89	17.92	0	587.8569736	106.9569825	44447	13.12075076	15.869
2009	257	24.44	15	21.85	0	598.2023368	477.8696958	44281	13.21502108	16.301
2009	258	23.89	13.89	21.14	0.00035	456.242422	328.4017228	44115	13.22879216	16.07
2009	259	24.44	11.67	20.93	0	743.9274831	297.3866755	43949	13.16699024	15.832
2009	260	19.44	11.67	17.31	0.010241667	315.1932069	387.5532056	43783	13.10015012	15.33
2009	261	16.11	13.89	15.5	0.014991667	481.6589997	79.71882523	43617	12.9930044	15.396
2009	262	23.33	10	19.67	0	668.9773209	431.1204143	43450	12.7243004	14.891
2009	263	20	5.56	16.03	0	394.0091204	511.4600545	43284	12.46320968	13.936
2009	264	23.33	6.11	18.6	0	470.319669	419.366955	43117	12.35404868	14.726
2009	265	23.89	14.44	21.29	0.077166667	413.0755619	425.1073549	42951	12.33277628	15.664
2009	266	23.33	18.33	21.96	0.454383333	323.0048201	146.6952599	42784	12.34744304	16.64
2009	267	26.11	17.78	23.82	0	550.8505766	287.909733	42618	12.36625232	17.223
2009	268	22.78	13.33	20.18	0	766.0699265	209.8487704	42452	12.23413952	16.518
2009	269	20	12.22	17.86	2.91225	393.1857879	423.0745637	42286	12.02645372	14.914
2009	270	14.44	11.67	13.68	1.75345	97.59836475	66.51524217	42120	12.8496956	14.288
2009	271	16.67	12.22	15.44	0.7834	392.4936873	144.1699004	41954	14.886248	13.994
2009	272	20	11.11	17.56	0.0036	614.0463142	258.0364698	41788	15.261314	13.439
2009	273	13.89	10.56	12.97	0.002233333	474.1497003	80.00398818	41623	15.12326732	13.148
2009	274	13.33	6.67	11.5	0	425.1628331	226.9404458	41458	15.0536282	12.208
2009	275	12.78	3.89	10.33	0.634591667	132.6601074	243.7642458	41293	15.04288004	11.442
2009	276	15	5	12.25	0.372508333	279.36355	215.6805174	41129	15.20007188	12.524
2009	277	18.89	7.78	15.83	0	395.4028318	364.3781369	40964	15.26064224	12.211
2009	278	15.56	7.78	13.42	0	431.4231722	216.5545207	40801	15.2803472	11.846
2009	279	15.56	4.44	12.5	0	370.5361453	299.5252848	40637	15.26265752	11.362
2009	280	17.78	5	14.26	0.267583333	564.702324	375.2800316	40474	15.35323316	12.296
2009	281	13.33	7.78	11.81	0	466.8655743	216.561148	40312	15.3212126	11.918
2009	282	18.33	8.33	15.58	1.115225	171.0742548	346.520797	40150	15.50404328	12.503
2009	283	17.78	11.67	16.1	0.475775	390.5188521	98.41761484	39989	15.83801996	12.904
2009	284	14.44	5	11.85	0	373.7990604	209.3787285	39828	15.78181604	11.119
2009	285	12.78	3.89	10.33	0	340.3996733	336.8411526	39667	15.77588216	10.176
2009	286	9.44	3.89	7.92	0.005983333	283.6007623	134.8980966	39508	15.83208608	10.178
2009	287	13.33	0	9.67	3.33333E-05	252.7312396	155.3075809	39349	15.81058976	9.218
2009	288	7.22	0.56	5.39	2.513708333	65.32204503	143.7659156	39191	15.84820832	8.255
2009	289	3.89	-0.56	2.67	1.276416667	39.74306619	41.64829759	39033	16.294145	6.74
2009	290	1.67	0	1.21	0.679866667	44.46893486	105.1623624	38876	16.8892124	6.71
2009	291	3.89	0	2.82	0.185891667	193.5736985	86.93755165	38720	17.49894656	7.024
2009	292	10	-1.11	6.94	0	279.1027575	257.0438221	38565	17.91319856	6.857
2009	293	12.78	0	9.26	0	396.3782907	402.2132462	38411	18.23038124	7.735
2009	294	19.44	6.67	15.93	3.33333E-05	513.2498888	342.0583407	38258	18.53715164	8.74
2009	295	21.11	7.78	17.44	0	743.1655047	279.9480397	38106	18.73756004	9.582
2009	296	21.67	8.33	18	0.837983333	421.5513789	314.7272296	37955	18.92173424	10.492
2009	297	17.22	11.11	15.54	7.42895	347.2655167	117.1349064	37804	20.45357096	11.917
2009	298	18.33	6.67	15.12	0	724.291248	136.2429425	37655	21.00351848	11.035
2009	299	15	2.78	11.64	0	419.3229011	365.9718719	37507	21.00956432	9.861
2009	300	15.56	3.33	12.19	0.064833333	201.9614038	343.4797248	37361	21.01986464	9.781
2009	301	13.33	7.78	11.81	1.282408333	131.5099396	136.5894397	37215	21.48942488	10.631
2009	302	15	11.11	13.93	4.16667E-05	246.9586021	83.21016428	37071	21.64896788	11.104
2009	303	13.33	10	12.42	0.013566667	246.492101	79.03531196	36928	21.66117152	11.154
2009	304	14.44	11.11	13.53	0.110216667	391.4013184	58.89743659	36787	21.68569076	11.318
2009	305	16.67	5.56	13.61	0	645.7503674	58.59573771	36647	21.66005192	10.4
2009	306	11.67	-0.56	8.31	3.33333E-05	308.9746219	300.2259717	36509	21.58335932	8.931
2009	307	12.78	0	9.26	0.032983333	442.227101	341.7961344	36372	21.55492148	8.65
2009	308	12.22	-1.11	8.56	0.001616667	384.6979668	277.2042388	36237	21.53376104	7.877
2009	309	7.78	-1.11	5.33	0.077083333	213.3716827	194.7745617	36103	21.5495474	7.589
2009	310	7.22	0.56	5.39	0	391.6988879	113.8939145	35971	21.5181986	6.709
2009	311	7.78	-2.22	5.03	0	335.0895566	336.1670712	35841	21.47431028	6.137
2009	312	13.33	-2.22	9.06	0	394.3304765	306.7477949	35713	21.51058532	7.008
2009	313	21.11	5.56	16.83	0	457.0171514	315.5840499	35586	21.54977132	7.899
2009	314	19.44	5.56	15.62	0	543.8915295	189.9116237	35462	21.61851476	8.616
2009	315	14.44	5.56	12	0.015083333	742.7692553	138.9815218	35339	21.5859344	8.585
2009	316	10.56	2.22	8.26	0	635.896958	173.1909481	35219	21.54148628	7.906
2009	317	10	2.78	8.01	6.66667E-05	609.4263692	186.6418803	35100	21.54663644	8.216
2009	318	15.56	5	12.65	0.003733333	362.9603322	271.4951978	34984	21.59780216	9.346
2009	319	14.44	4.44	11.69	1.66667E-05	298.1035457	133.4935475	34870	21.581456	9.342
2009	320	19.44	5.56	15.62	0	734.7430277	276.6466239	34759	21.58738988	9.383
2009	321	12.78	5.56	10.79	0	794.3924701	289.2625473	34649	21.55111484	8.891
2009	322	8.89	2.78	7.21	0	365.799792	100.9619594	34542	21.47542988	7.997
2009	323	10	4.44	8.47	1.212533333	110.5722992	173.5931529	34438	22.0169804	8.667
2009	324	11.11	6.11	9.74	0.043433333	439.1936874	54.9111137	34336	22.77595724	8.729
2009	325	10	5	8.62	0	315.3315028	191.1826679	34237	22.56659204	8.407
2009	326	10.56	5	9.03	0	191.8939447	116.415993	34140	22.40469788	7.699
2009	327	8.33	3.89	7.11	0.046891667	215.7106532	80.56611643	34046	22.33808168	7.618
2009	328	9.44	4.44	8.07	0.679641667	79.92162581	92.74624492	33954	22.79711768	8.127
2009	329	9.44	6.67	8.68	0.029666667	100.914755	76.33266403	33866	22.78435424	8.453
2009	330	10.56	2.22	8.26	0.4603	98.29357923	92.60408526	33780	22.8113366	7.936
2009	331	10	2.22	7.86	0.246758333	323.7376413	140.3104727	33697	23.4052844	7.234
2009	332	5.56	1.67	4.49	0.036091667	219.0044832	100.8761378	33618	22.95621284	6.397
2009	333	5	0	3.62	0	273.8465278	97.60299335	33541	22.7519978	5.688
2009	334	16.11	0.56	11.83	0.126091667	443.3355542	253.7934981	33467	22.70542244	6.94
2009	335	11.11	-0.56	7.9	0.000958333	346.3394737	63.40611432	33397	22.65100988	5.784
2009	336	6.11	-2.22	3.82	0.656725	74.259888	119.4484083	33329	23.076122	5.027
2009	337	12.78	-1.67	8.81	0.898241667	269.6985342	68.63177514	33265	24.29682188	6.155
2009	338	11.67	2.78	9.22	0.00245	404.3970804	58.21304662	33204	23.62562168	5.726
2009	339	5	-1.11	3.32	0.464875	103.075495	140.8872262	33146	23.85950612	4.608
2009	340	0.56	-3.89	-0.67	0.001691667	169.5391919	39.108425	33092	23.42275016	3.91
2009	341	0.56	-5.56	-1.12	0.002908333	114.5965167	283.8162586	33041	23.21741552	3.578
2009	342	1.11	-5.56	-0.72	0.000591667	191.6584817	88.95050465	32993	23.1416186	3.658
2009	343	3.33	-1.11	2.11	3.267383333	93.08141013	218.1263771	32949	23.28414368	3.416
2009	344	6.11	-3.33	3.51	0.002883333	362.2057389	154.7091677	32909	23.52911216	2.48
2009	345	-2.22	-10	-4.36	1.66667E-05	241.5653984	166.6408798	32872	23.41737608	2.414
2009	346	-2.78	-9.44	-4.61	0	243.8525446	204.1721177	32838	23.22547664	1.77
2009	347	2.22	-5.56	0.08	1.664683333	137.7923547	275.3377835	32808	23.13702824	1.809
2009	348	5	-0.56	3.47	0.000416667	126.5436996	51.09499115	32782	23.52385004	2.102
2009	349	7.78	2.78	6.4	0.1445	169.7839001	131.1490583	32759	23.8665596	2.19
2009	350	7.78	-3.89	4.57	0.01185	351.5186021	52.82345754	32740	23.8576028	1.61
2009	351	-1.11	-7.22	-2.79	0.001183333	194.6349855	233.9156582	32724	23.53426232	1.259
2009	352	-1.67	-6.67	-3.04	0	190.6060358	212.0011005	32712	23.31109021	-0.917
2009	353	0	-6.67	-1.83	0.758841667	69.38089985	178.18591	32704	23.26767436	-0.999
2009	354	-4.44	-7.22	-5.21	0.020958333	141.3702265	62.00299703	32699	23.20978657	-0.97
2009	355	0	-6.11	-1.68	0.001766667	163.3830332	250.2578751	32698	23.16637072	-1.153
2009	356	0.56	-3.33	-0.51	0.00515	181.8306143	200.249656	32701	23.10848292	-1.1
2009	357	1.11	-9.44	-1.79	0	198.3102232	114.6239031	32707	23.06506707	-1.021
2009	358	-1.67	-9.44	-3.81	0	130.5850733	276.4927713	32717	23.02165122	-1.096
2009	359	0	-5.56	-1.53	0.436566667	66.77951248	271.6298005	32731	22.96376342	-0.961
2009	360	6.11	-1.67	3.97	2.204083333	54.83178188	43.00454976	32749	22.92034757	-1.019
2009	361	6.67	-2.78	4.07	0.003083333	160.2968077	50.7335978	32770	22.86245978	-1.057
2009	362	5	-2.78	2.86	0.011341667	256.0515326	196.5332378	32794	22.81904393	-1.183
2009	363	-2.22	-7.78	-3.75	0.049575	202.1849359	131.618122	32822	22.77562808	-1.182
2009	364	-4.44	-9.44	-5.82	0	146.7228171	227.6367566	32854	22.71774028	-1.014
2009	365	-1.67	-9.44	-3.81	0.426108333	66.96507975	174.9951656	32889	22.67432443	-1.17
2010	1	0	-3.89	-1.07	0.021008333	111.5198336	85.07561953	32928	22.83529604	0.026
2010	2	2.78	-7.78	-0.12	0.079366667	216.0043044	110.3866428	32971	22.8589196	-0.055
2010	3	-6.67	-11.11	-7.89	0.004641667	118.5879497	178.9096526	33017	22.71751412	0.059
2010	4	-6.11	-10.56	-7.33	0.005375	120.014054	82.91417166	33066	22.47747188	0.031
2010	5	-3.89	-7.78	-4.96	0.004258333	132.4565973	107.471542	33119	22.337186	-0.005
2010	6	-2.78	-7.78	-4.15	0.024658333	121.4258647	86.79933685	33175	22.26038144	0.001
2010	7	-1.11	-3.89	-1.87	0.000208333	165.2800878	66.69669615	33234	22.3276694	-0.031
2010	8	-1.67	-6.11	-2.89	0.136158333	125.2094245	84.95921432	33296	22.32845312	-0.295
2010	9	-4.44	-8.89	-5.67	0.005166667	176.6695034	209.6644086	33362	22.23519044	-0.457
2010	10	-2.78	-13.33	-5.68	0	146.0890171	292.5369268	33431	21.88721876	-0.438
2010	11	-4.44	-13.33	-6.89	0.016116667	127.458138	261.7366803	33503	21.20840528	-0.354
2010	12	-2.22	-9.44	-4.21	0.00085	147.7534395	156.5544537	33579	21.0865928	-0.448
2010	13	-2.22	-6.67	-3.44	0	169.3752225	206.6843747	33657	21.06397688	-0.412
2010	14	0	-7.78	-2.14	0	186.0429463	176.3264865	33738	20.89256612	-0.31
2010	15	7.22	-7.22	3.25	0	245.8080478	288.1660458	33822	20.93141624	-0.155
2010	16	5.56	2.22	4.64	0	241.7271257	59.95647173	33909	21.74961992	-0.484
2010	17	9.44	-1.67	6.39	1.630925	67.46757635	170.790435	33999	24.4129244	-0.305
2010	18	3.89	-1.11	2.51	0.043708333	129.5067224	26.47219289	34092	25.51729784	-0.376
2010	19	6.11	2.22	5.04	0.014733333	179.3813113	203.5951093	34187	24.91193012	-0.219
2010	20	4.44	-2.22	2.61	0	253.3243194	45.43497156	34285	24.56832488	-0.31
2010	21	1.67	-7.22	-0.78	0	178.2963888	164.4032455	34386	24.00516608	-0.214
2010	22	3.33	-6.67	0.58	0.065466667	242.7984897	294.5434776	34489	23.76769892	-0.168
2010	23	2.78	-4.44	0.79	0	267.359495	103.8670328	34595	23.78001452	-0.292
2010	24	5	-5	2.25	1.057183333	142.2054918	298.4909374	34703	24.49532696	-0.02
2010	25	13.33	1.67	10.12	4.141916667	284.4608514	68.47710691	34814	26.74415552	1.877
2010	26	11.67	-1.67	8	0.027716667	387.2378933	77.96546985	34926	24.73626488	1.537
2010	27	0.56	-3.89	-0.67	0.003583333	234.7107231	176.6892301	35042	24.24643988	0.591
2010	28	0.56	-3.89	-0.67	0.068183333	202.1964405	229.6415143	35159	23.92567448	0.227
2010	29	1.67	-13.33	-2.46	0	232.2756603	193.8167697	35278	23.3386682	-0.196
2010	30	-7.22	-13.33	-8.9	0	153.0169118	276.4918644	35400	22.34580692	-0.395
2010	31	-8.33	-13.89	-9.86	0	155.742414	142.3351068	35523	19.28784344	-0.712
2010	32	-2.22	-13.33	-5.28	0	191.5766279	338.7432467	35649	15.19727288	-0.806
2010	33	-1.11	-7.78	-2.94	0.048866667	149.8203472	258.1529517	35776	13.84266884	-0.672
2010	34	1.67	-6.67	-0.62	0.1417	138.2543235	170.4110291	35905	14.37391904	-0.636
2010	35	1.11	-4.44	-0.42	0	282.8756916	113.4632035	36036	14.94245192	-0.603
2010	36	3.33	-4.44	1.19	0.297025	169.1546818	336.3579861	36169	15.38032748	-0.637
2010	37	1.11	-5.56	-0.72	1.478475	179.3266347	68.67597719	36303	15.94695704	-0.982
2010	38	-2.22	-15.56	-5.89	1.66667E-05	140.014984	205.5920143	36440	16.89301904	-1.189
2010	39	-2.22	-14.44	-5.58	1.66667E-05	135.2405321	369.5466277	36577	17.7541034	-1.059
2010	40	-1.67	-10.56	-4.11	0.08035	77.78833028	401.6545103	36716	18.38701328	-0.625
2010	41	-2.22	-8.89	-4.06	0.891358333	61.59693208	131.9910465	36857	19.06862576	-0.761
2010	42	-2.78	-9.44	-4.61	0.002291667	139.1377205	104.2889808	36999	19.9059746	-0.676
2010	43	-1.11	-5.56	-2.33	3.33333E-05	209.4065999	229.4715828	37143	20.59878308	-0.813
2010	44	1.11	-7.78	-1.33	0.000233333	211.6857332	340.1720171	37287	21.08110676	-0.786
2010	45	-3.33	-7.78	-4.56	0.014183333	137.1988201	192.6055619	37433	21.29237528	-0.576
2010	46	-1.11	-9.44	-3.4	0.297308333	119.729269	126.4190948	37581	21.35854364	-0.717
2010	47	0.56	-9.44	-2.19	0.084291667	165.7281876	221.9893451	37729	21.40299176	-0.696
2010	48	-1.11	-6.67	-2.64	0.011191667	161.4629869	248.4792629	37879	21.42168908	-0.492
2010	49	0.56	-5	-0.97	0.007591667	215.9663021	192.9330774	38029	21.47654948	-0.252
2010	50	2.78	0	2.01	0.000183333	320.3520665	270.4695529	38181	21.53308928	-0.332
2010	51	4.44	-3.89	2.15	0	334.1611361	301.7261178	38334	21.66811304	-0.613
2010	52	5	-3.89	2.56	0	409.1621616	232.2372749	38487	21.80235308	-0.375
2010	53	7.22	-3.33	4.32	0.125525	253.520992	407.1309456	38642	22.05571856	-0.307
2010	54	4.44	-2.22	2.61	0.041291667	75.61425035	137.8104026	38798	22.24672232	-0.225
2010	55	3.33	-0.56	2.26	0	263.6064599	104.6039945	38954	22.45731908	-0.025
2010	56	2.78	-2.22	1.4	0.043733333	207.1322165	208.8667638	39111	23.07287516	-0.327
2010	57	0.56	-6.67	-1.43	0.315566667	120.0686571	222.8887927	39269	23.34101936	-0.39
2010	58	-2.22	-5.56	-3.14	0.068416667	119.7091058	132.2950695	39428	23.28795032	-0.088
2010	59	1.67	-3.89	0.14	0.043183333	187.3356345	272.2746861	39587	23.26611812	-0.017
2010	60	4.44	-1.11	2.92	0.008058333	233.5345711	251.1958638	39747	23.36083628	0.124
2010	61	3.89	0	2.82	0.000425	243.5892452	165.3150575	39907	23.9533286	-0.138
2010	62	3.33	-0.56	2.26	0.048066667	207.0671659	182.1579814	40068	24.78149672	-0.108
2010	63	4.44	-2.78	2.46	0	394.4714723	115.5337808	40230	25.73617964	-0.396
2010	64	5	-2.78	2.86	0	426.5389723	439.5047534	40392	25.79652608	-0.381
2010	65	7.22	-5	3.86	0	483.723969	419.4639872	40555	25.68389432	-0.38
2010	66	9.44	-4.44	5.62	0	602.7230652	467.4409352	40718	25.82989016	-0.35
2010	67	10.56	-1.11	7.35	0	646.133554	460.0942958	40882	25.74155372	0.151
2010	68	11.67	-0.56	8.31	0	594.5900011	461.4164596	41046	25.1373056	1.023
2010	69	15.56	1.11	11.58	0.000808333	679.1629471	454.4945402	41210	24.65554172	2.079
2010	70	15.56	2.22	11.89	0.002408333	541.3981871	261.2535589	41375	24.38112776	3.6
2010	71	18.89	3.89	14.76	0.818983333	178.3883097	421.2968946	41540	24.98033768	5.065
2010	72	10	5	8.62	2.895616667	123.9284277	64.10411222	41705	27.36105512	4.867
2010	73	8.33	5	7.42	0.880633333	103.5372274	55.12892286	41870	26.26037636	4.965
2010	74	6.67	4.44	6.06	0.045566667	196.7819722	65.61390237	42036	25.2207158	4.88
2010	75	6.67	4.44	6.06	1.66667E-05	528.4148953	78.1147339	42202	24.69237656	4.955
2010	76	15.56	-0.56	11.13	0	786.6147442	476.9151246	42368	24.36668492	5.079
2010	77	17.78	0	12.89	0	884.5385146	492.73607	42534	24.14433236	5.252
2010	78	18.89	1.67	14.15	0	912.8883794	470.4246036	42701	23.97885548	5.777
2010	79	20	6.11	16.18	0	1037.163672	467.6267992	42867	23.8643204	6.559
2010	80	21.11	6.67	17.14	0	1167.51575	434.3761299	43033	23.79468128	7.657
2010	81	22.78	7.78	18.65	0.3143	561.2853258	416.7556944	43200	23.80811648	8.544
2010	82	18.33	7.78	15.43	0.246025	335.6198265	124.479454	43366	23.95265684	8.029
2010	83	8.33	2.78	6.81	0.000108333	570.5693522	48.67755496	43533	23.88906356	6.955
2010	84	15.56	2.78	12.04	0.200816667	517.5675446	503.9315774	43699	23.94190868	7.147
2010	85	18.33	-1.11	12.99	1.101366667	733.2761299	231.4165508	43865	25.9747664	6.763
2010	86	5	-5.56	2.1	0	443.5347271	467.6842978	44032	24.60168896	5.419
2010	87	8.89	-5.56	4.92	2.144625	172.9833566	470.2192181	44198	25.19082248	5.133
2010	88	7.22	2.78	6	0.182625	186.4774684	150.5477538	44363	25.407689	5.768
2010	89	14.44	1.67	10.93	0.001841667	690.6611826	225.4681668	44529	24.60504776	6.138
2010	90	10	1.67	7.71	0.000325	707.0691914	266.377738	44695	24.3099212	6.598
2010	91	20	5	15.88	0	1108.768058	511.437004	44860	24.15295328	7.7
2010	92	26.67	6.67	21.17	0	1343.450028	507.3818101	45025	24.04188896	9.105
2010	93	28.33	10	23.29	0	1371.97667	462.4367559	45190	23.94526748	10.095
2010	94	25.56	12.22	21.89	0	1784.308152	435.8771001	45354	23.83834568	10.524
2010	95	21.11	7.22	17.29	0.001283333	1113.620212	465.9983303	45518	23.69346944	10.235
2010	96	26.67	8.33	21.63	0.1036	1268.346143	406.7829076	45681	23.70947972	11.483
2010	97	30	15.56	26.03	0	2277.840818	446.655186	45845	23.66962196	12.317
2010	98	29.44	12.22	24.71	0.188058333	1355.85076	379.7380833	46007	23.56740248	12.329
2010	99	28.89	4.44	22.17	0.03315	1122.008326	372.5798913	46169	23.3817728	10.777
2010	100	7.22	3.89	6.31	0.008375	562.5312808	179.55233	46331	23.28335996	9.409
2010	101	16.67	5.56	13.61	0	923.1641868	548.0731954	46492	23.2395836	9.879
2010	102	21.11	2.78	16.07	0	1318.838169	437.8569009	46653	23.17587836	9.995
2010	103	18.89	4.44	14.92	0.001133333	845.7859205	518.1982569	46813	23.04040676	9.698
2010	104	13.33	0	9.67	0	506.9135009	221.6722941	46972	22.93426868	8.921
2010	105	18.33	2.78	14.06	0	837.0168582	526.7408075	47131	22.91131688	9.732
2010	106	25.56	7.78	20.67	0.412966667	874.0810633	461.4455159	47289	22.92755108	10.945
2010	107	25.56	6.11	20.21	0.19925	825.0047669	318.0201281	47446	23.3666582	10.237
2010	108	7.22	1.67	5.69	0.023616667	312.1296568	170.5551657	47602	23.27070848	8.732
2010	109	9.44	1.67	7.31	0	517.9129054	200.2423678	47758	23.23197032	8.713
2010	110	17.22	2.22	13.1	0	745.8473127	558.1331817	47912	23.19166472	9.369
2010	111	18.33	5	14.67	0.06255	608.2405161	482.3339367	48066	23.11441232	9.746
2010	112	20	4.44	15.72	0.056466667	751.3825465	396.1591281	48219	23.04634064	9.755
2010	113	20	3.33	15.42	0	1116.214058	385.3875336	48370	22.98924104	9.927
2010	114	19.44	3.89	15.17	0.070741667	757.695633	564.1263783	48521	22.85623256	9.857
2010	115	16.67	6.11	13.76	1.24475	125.4044897	259.9680097	48671	23.57960612	9.647
2010	116	11.67	7.78	10.6	1.029241667	100.9510084	107.3452959	48819	25.3668236	9.696
2010	117	12.22	5.56	10.39	0.198733333	599.0647484	107.8803864	48966	25.32002432	9.514
2010	118	11.11	1.67	8.51	0	629.9726654	455.3688101	49112	24.48469076	8.902
2010	119	12.78	2.78	10.03	0	801.9290074	399.0018881	49257	24.14937056	9.32
2010	120	19.44	6.67	15.93	0	905.2578058	546.7403494	49401	23.93888576	10.597
2010	121	27.78	10	22.89	0	1358.744456	521.5866621	49543	23.75695076	12.128
2010	122	30.56	15.56	26.43	0.23245	594.7040993	450.8251716	49683	23.59539248	13.166
2010	123	23.89	17.78	22.21	1.59415	641.6816102	146.5390482	49823	25.19865968	13.778
2010	124	25	12.78	21.64	0.37015	871.2859522	270.4929544	49960	24.95503472	13.337
2010	125	22.22	8.89	18.56	0	858.2302341	442.5669115	50096	24.56541392	13.002
2010	126	26.67	11.11	22.39	0.27015	1221.65997	569.4504788	50231	24.28036376	13.445
2010	127	21.11	6.11	16.99	0	743.1969638	560.3188452	50363	23.97594452	12.771
2010	128	20.56	8.33	17.19	0.721991667	641.877035	446.5041489	50495	24.1498184	12.745
2010	129	16.11	2.78	12.44	0.037625	632.339722	343.873558	50624	24.03080492	10.988
2010	130	8.33	2.22	6.65	0	538.1930523	221.9358042	50751	23.74597868	10.085
2010	131	15	1.67	11.33	1.692641667	284.1894484	601.7866816	50877	24.37194704	9.345
2010	132	9.44	3.33	7.76	1.605108333	95.03821326	84.61235294	51000	25.73282084	9.027
2010	133	16.11	6.67	13.51	0.000833333	325.1761622	124.2531591	51122	24.72327752	9.802
2010	134	14.44	7.78	12.61	0.162083333	322.4562471	204.1767335	51241	24.4185224	10.895
2010	135	27.22	11.11	22.79	0.132266667	1337.088583	332.1215001	51358	24.2483432	11.984
2010	136	21.11	10.56	18.21	0.002566667	900.2163436	517.0892312	51473	23.94817844	11.951
2010	137	19.44	8.89	16.54	0.335833333	439.1544302	545.8230915	51586	23.68081796	11.694
2010	138	15.56	8.33	13.57	0.513241667	179.6434306	138.9265141	51697	24.16840376	11.086
2010	139	11.67	8.33	10.75	0.000191667	250.5843739	92.26130682	51805	24.21777812	10.917
2010	140	17.78	10	15.64	0	659.6935837	253.1652475	51910	24.02901356	11.763
2010	141	27.22	13.33	23.4	0	1003.374627	550.5801323	52014	23.80139888	12.739
2010	142	27.78	15.56	24.42	0.303733333	781.8861175	410.6865142	52114	23.76657932	13.344
2010	143	22.22	15	20.24	1.86885	266.716222	299.7104497	52212	26.32385768	13.854
2010	144	22.22	13.89	19.93	0.00325	399.917488	255.3545538	52308	25.14368732	14.063
2010	145	23.33	15	21.04	0.00005	644.1077855	286.6230725	52400	24.6189308	14.621
2010	146	26.67	16.11	23.76	0	895.8815694	439.6306725	52490	24.20378312	15.175
2010	147	30	17.78	26.64	3.33333E-05	1313.359499	547.7983339	52577	23.8503254	16.005
2010	148	30.56	18.89	27.35	0.036416667	664.1662989	479.0819376	52662	23.51825204	16.23
2010	149	26.11	17.78	23.82	0.000433333	684.3608582	289.6928502	52743	23.24708492	16.074
2010	150	26.11	13.33	22.6	0	956.8020012	354.3647792	52821	22.84682792	16.003
2010	151	30	16.11	26.18	0.123666667	789.0704057	569.5046317	52896	22.35745076	16.306
2010	152	30.56	17.78	27.04	0.306483333	503.5565497	397.5129038	52969	21.998507	16.581
2010	153	26.11	14.44	22.9	0	795.9966503	256.7324937	53038	21.6133646	16.524
2010	154	28.33	16.11	24.97	0.000383333	918.3023758	527.5724912	53103	21.0843536	16.893
2010	155	27.78	18.89	25.33	0.001325	670.8221589	376.3463868	53166	20.57952596	17.021
2010	156	28.33	18.89	25.74	0.226383333	534.0558894	354.1336778	53225	20.17758956	17.42
2010	157	27.78	18.89	25.33	0.106141667	791.4485343	293.8819467	53281	19.79020796	17.294
2010	158	25.56	12.78	22.04	0.0003	1096.404058	343.5280309	53334	19.24160396	16.312
2010	159	21.11	10	18.06	0	920.4562131	410.4082198	53383	18.68034848	15.082
2010	160	22.22	11.67	19.32	3.927258333	255.7260075	585.2579124	53429	20.80534928	14.385
2010	161	17.22	12.22	15.85	0.003291667	513.1863292	72.04826916	53471	23.32736024	14.834
2010	162	25.56	12.78	22.04	0	685.5874432	487.6168193	53510	22.92464012	15.311
2010	163	25.56	13.89	22.35	0.019616667	570.430018	467.1209801	53546	22.53098876	16.258
2010	164	31.11	19.44	27.9	0.528716667	730.595471	471.5924371	53577	22.38801584	17.377
2010	165	28.33	16.67	25.12	0.008216667	625.1153143	296.6134574	53606	22.15368356	17.43
2010	166	25	18.33	23.17	0.003133333	529.8318543	218.7056312	53630	21.65993996	17.242
2010	167	23.33	17.78	21.81	0.119383333	485.7824635	255.665188	53651	21.26449724	17.35
2010	168	28.33	17.22	25.28	0	1173.624179	428.3863683	53669	20.73962876	17.465
2010	169	23.33	11.67	20.12	0	676.6384707	434.4317648	53682	20.03674388	16.514
2010	170	27.22	13.89	23.56	0	778.92801	574.6877247	53693	19.40114696	16.879
2010	171	31.11	17.78	27.44	0.041833333	1104.615981	503.0047114	53699	18.82959116	17.703
2010	172	28.89	16.11	25.38	0	1056.244733	418.5089568	53702	18.18100688	17.665
2010	173	29.44	18.89	26.54	0.345633333	654.9866769	523.446677	53701	17.72152304	17.821
2010	174	27.78	20.56	25.79	0.011108333	875.979023	289.275514	53696	17.39426396	18.554
2010	175	31.67	20.56	28.61	0.035641667	1198.900125	496.9816905	53688	16.83591944	18.898
2010	176	28.33	16.67	25.12	0	1026.932597	378.4889336	53676	16.24275536	18.342
2010	177	27.22	17.22	24.47	0	950.2680028	495.7837908	53661	15.65630888	18.044
2010	178	30	19.44	27.1	1.03355	899.8804639	446.1037453	53641	15.53068976	18.77
2010	179	31.67	21.11	28.76	0.1209	968.1793801	452.7681046	53619	15.68519456	19.396
2010	180	26.67	19.44	24.68	0.017883333	1134.858296	228.4517279	53592	15.46989548	19.167
2010	181	25	8.89	20.57	0	1057.861714	488.4842612	53562	14.9523044	17.282
2010	182	22.22	10	18.86	0	983.406447	539.4237142	53529	14.50121756	16.306
2010	183	22.22	10	18.86	0	883.5957742	474.1217962	53491	14.09424296	15.823
2010	184	25	12.22	21.49	0	1060.72511	574.5579877	53451	13.73574704	16.042
2010	185	30	13.33	25.42	0	1367.643937	574.7227143	53407	13.40322584	16.706
2010	186	32.78	18.33	28.81	0	1530.310727	565.443018	53359	13.11918332	17.706
2010	187	34.44	20.56	30.62	0	1773.996979	475.057271	53308	12.85551752	18.528
2010	188	33.89	21.11	30.38	0	1710.002764	492.9856537	53254	12.60752612	19.177
2010	189	33.89	21.11	30.38	0	1870.65705	496.0998383	53196	12.33311216	19.418
2010	190	34.44	22.22	31.08	2.081583333	1197.390857	476.904338	53135	12.1969688	19.775
2010	191	32.78	18.33	28.81	1.728766667	1312.467067	392.8769196	53071	13.17258824	19.878
2010	192	27.78	14.44	24.11	0	1133.416809	525.5413365	53004	13.94108168	19.12
2010	193	30	17.22	26.49	0.73635	682.3568476	568.3926095	52933	14.36462636	18.666
2010	194	27.78	19.44	25.49	0.059183333	456.26382	344.053689	52860	14.96596352	19.006
2010	195	25.56	19.44	23.88	1.139066667	524.0691574	206.5965368	52783	17.20594724	19.497
2010	196	28.33	18.33	25.58	0	848.8172994	312.7365805	52703	17.56332356	19.827
2010	197	30.56	20	27.65	0.48655	485.2050045	501.7411631	52620	17.24031896	19.953
2010	198	29.44	18.89	26.54	0.000166667	831.2836514	324.7284858	52535	17.11716296	20.145
2010	199	30	18.89	26.94	0.0028	1335.872475	494.1107234	52446	16.66506848	20.725
2010	200	31.67	22.22	29.07	0.00055	1172.862153	516.2557922	52355	15.99879452	20.51
2010	201	30.56	18.33	27.19	0.4471	546.8714812	459.8963854	52261	15.54412496	20.127
2010	202	29.44	18.89	26.54	0.416091667	750.04759	326.6476689	52164	15.42040916	20.432
2010	203	31.11	18.89	27.75	0.344708333	979.5500502	417.1403822	52065	15.52509176	20.405
2010	204	29.44	20	26.85	0.001166667	1130.484838	516.7896773	51963	14.99081864	20.918
2010	205	33.89	22.22	30.68	0.002166667	1667.306151	440.4106213	51858	14.37470276	21.669
2010	206	32.78	22.22	29.88	0.206216667	1058.341802	478.5279318	51751	13.75388456	21.383
2010	207	27.22	17.22	24.47	0	1104.311093	280.8925487	51642	13.26092468	20.356
2010	208	27.78	16.11	24.57	0	989.1303315	564.1301378	51530	12.742214	19.568
2010	209	29.44	18.33	26.39	0	1062.703218	530.1708773	51417	12.38427788	19.82
2010	210	30.56	20	27.65	0.312433333	1242.692256	499.9139181	51300	12.15845456	20.524
2010	211	28.89	14.44	24.92	0	1191.594979	458.6983705	51182	11.87485988	19.586
2010	212	25.56	13.33	22.19	0	1046.683227	492.6402217	51062	11.59227284	18.708
2010	213	26.67	15.56	23.61	0.0018	1014.72537	468.5463397	50939	11.41862288	19.064
2010	214	27.78	18.33	25.18	0	799.9971262	406.3037292	50815	11.23232144	18.894
2010	215	25.56	19.44	23.88	0.12175	482.7329491	319.319839	50688	11.10636644	19.145
2010	216	28.33	21.67	26.5	0.1883	643.2302471	250.2314478	50560	11.05956716	20.019
2010	217	32.22	20.56	29.01	0.015533333	1043.26288	360.6039064	50430	10.99810112	20.343
2010	218	28.33	18.33	25.58	0.19875	980.2004728	368.7530916	50298	10.86901124	20.034
2010	219	25.56	15	22.65	0	950.096899	392.7425644	50164	10.71025196	19.11
2010	220	26.67	13.89	23.15	0	1108.238357	462.3589718	50029	10.57164548	18.523
2010	221	29.44	15	25.47	0	1455.063619	506.9994989	49892	10.48532432	18.813
2010	222	32.22	17.22	28.1	0	1413.836914	509.5128834	49754	10.42385828	19.543
2010	223	32.22	20	28.86	0	1543.52506	388.7245536	49614	10.35668228	20.068
2010	224	31.67	20	28.46	1.727325	407.2173777	505.668277	49472	10.45072868	20.018
2010	225	23.33	16.67	21.5	0.066308333	456.9723593	142.4630043	49330	10.79321432	19.404
2010	226	21.67	17.22	20.44	0	729.8387913	171.2793884	49186	11.020829	19.005
2010	227	24.44	19.44	23.07	0.923683333	306.2990266	208.9867047	49040	11.67478736	19.026
2010	228	27.22	19.44	25.08	0.000133333	894.7940435	221.0361394	48894	12.62454404	20.043
2010	229	30	16.67	26.33	0	1297.342299	449.2098429	48746	12.51571892	19.604
2010	230	27.78	17.78	25.03	0	866.6201794	506.3022615	48597	12.25026176	18.984
2010	231	25.56	14.44	22.5	0	779.0633917	270.5033852	48446	11.96196476	18.667
2010	232	30	16.11	26.18	0	1085.611031	468.7396625	48295	11.64926048	18.893
2010	233	29.44	16.67	25.93	0.0001	1022.523487	461.6193631	48143	11.30733464	19.021
2010	234	28.33	17.22	25.28	5.16885	519.1962818	306.8267764	47990	11.55275096	19.767
2010	235	26.11	17.22	23.67	0.204908333	405.6654593	253.2890919	47836	11.84104796	19.162
2010	236	20.56	15	19.03	0.027841667	371.05711	155.1791699	47681	12.01604144	18.522
2010	237	20.56	15	19.03	0.044958333	441.8330614	172.3907628	47525	12.16875488	18.424
2010	238	25	16.67	22.71	0.000158333	877.2703059	279.0671128	47368	12.31262348	18.453
2010	239	24.44	10.56	20.62	0	748.6583543	455.2917814	47210	12.2932544	17.48
2010	240	25	10.56	21.03	0	779.5339742	547.6961022	47052	12.2725418	16.947
2010	241	27.22	12.22	23.1	0	791.4642562	536.0757896	46893	12.27769196	17.295
2010	242	30.56	14.44	26.13	0	1024.022671	518.6078444	46734	12.29448596	18.017
2010	243	30.56	16.67	26.74	0	1047.837738	511.5565456	46573	12.19831232	18.456
2010	244	32.22	18.33	28.4	0	1262.067289	488.2495637	46413	12.06754304	18.773
2010	245	32.22	18.33	28.4	0	1320.47912	492.8001341	46251	11.88359276	18.971
2010	246	32.78	18.33	28.81	0.00065	1314.304528	503.9149906	46089	11.66616644	18.908
2010	247	31.67	15	27.08	0	1431.1609	400.319028	45927	11.33409308	18.067
2010	248	19.44	10.56	17	0	721.8798257	265.2846998	45764	11.1031196	16.421
2010	249	20	7.78	16.64	0	679.7199161	415.3873904	45600	10.85770328	15.655
2010	250	25.56	8.89	20.97	0	1107.261922	457.7717499	45437	10.75682732	16.464
2010	251	31.67	15	27.08	0	1890.012094	495.0344584	45272	10.63647032	17.315
2010	252	23.89	13.33	20.99	0.000183333	1038.530398	503.5719828	45108	10.36888592	16.556
2010	253	19.44	12.78	17.61	6.66667E-05	777.2339625	231.0999266	44943	10.20251336	16.106
2010	254	20	8.33	16.79	0	748.6275351	290.650163	44778	10.03580492	15.474
2010	255	22.78	10	19.26	0.660916667	216.9822357	447.5443705	44613	10.04095508	15.816
2010	256	20.56	9.44	17.5	0.0016	619.4254481	139.7689383	44447	10.10466032	15.927
2010	257	25	11.11	21.18	0	1061.000073	452.1078792	44281	10.05662948	15.66
2010	258	22.78	11.11	19.57	0	990.0210669	500.4573501	44115	9.97601828	15.295
2010	259	23.89	10.56	20.22	2.125225	372.4080067	503.9175863	43949	9.91511204	14.733
2010	260	17.78	11.67	16.1	0.484125	375.0209321	84.36151018	43783	10.11966296	15.256
2010	261	17.78	8.89	15.33	0.005	375.7720653	239.2505674	43617	10.22501732	14.99
2010	262	22.78	8.89	18.96	0.0195	480.5608047	453.506214	43450	10.36104872	15.389
2010	263	26.11	11.67	22.14	3.33333E-05	1081.792827	332.6857037	43284	10.4856602	15.547
2010	264	20.56	7.22	16.89	0	643.9765751	493.7118306	43117	10.44949712	14.5
2010	265	25	7.22	20.11	0.01325	635.0261859	480.9962981	42951	10.54701428	15.377
2010	266	30.56	15	26.28	0.00045	782.4224953	375.1295812	42784	10.65046532	16.402
2010	267	28.89	16.11	25.38	0	1217.707535	349.8233376	42618	10.64609888	17.196
2010	268	31.11	17.22	27.29	0	1751.510632	405.625106	42452	10.55429168	17.491
2010	269	25.56	10	21.28	0.000125	831.7510312	472.0965095	42286	10.31335376	16.103
2010	270	18.33	10	16.04	1.195225	164.7892971	268.5343305	42120	10.27752656	15.894
2010	271	20	13.33	18.17	1.661683333	426.1130836	99.07493922	41954	10.47961436	16.74
2010	272	22.78	12.22	19.88	0	487.310112	298.0669331	41788	10.5186884	15.904
2010	273	18.33	12.22	16.65	6.583841667	126.6738748	248.5008769	41623	10.69547324	15.765
2010	274	17.78	12.22	16.25	0.844658333	547.663525	17.46538666	41458	10.99071176	15.495
2010	275	18.33	5.56	14.82	0	426.5965178	271.3559683	41293	11.20970552	14.158
2010	276	16.67	5.56	13.61	0	575.8699083	458.080284	41129	11.57659844	13.655
2010	277	16.67	6.11	13.76	0.53855	278.6348763	337.7378674	40964	11.95435148	12.968
2010	278	9.44	6.67	8.68	0.212733333	133.5831472	101.3366339	40801	12.4891844	12.294
2010	279	11.11	7.78	10.19	0.127425	190.0250428	71.4293378	40637	13.3070522	12.224
2010	280	12.22	8.33	11.15	0.039575	463.5628944	85.42313584	40474	14.26565372	12.774
2010	281	18.89	7.22	15.68	0	655.8766755	338.7311719	40312	14.92688948	12.907
2010	282	22.22	7.78	18.25	0	779.6958025	438.6341968	40150	15.30676976	13.183
2010	283	22.78	6.67	18.35	0	692.8307783	417.9222036	39989	15.4813154	13.277
2010	284	25	6.67	19.96	0.066072917	741.3670975	369.4599528	39828	15.61813052	14.204
2010	285	24.44	12.78	21.24	0.1991125	521.5284483	277.3587617	39667	15.68519456	14.481
2010	286	20.56	3.33	15.82	0.09274375	566.6405233	344.9811684	39508	15.59405912	12.929
2010	287	15.56	3.89	12.35	0.14305	231.1095259	441.6509441	39349	15.50695424	11.694
2010	288	12.22	6.11	10.54	0.1139375	468.0303829	77.99188589	39191	15.49654196	11.642
2010	289	13.89	6.11	11.75	0.114870833	761.6832293	307.2938539	39033	15.47336624	11.615
2010	290	16.11	6.67	13.51	0.122252083	685.4528063	422.1212059	38876	15.43955432	11.437
2010	291	19.44	5	15.47	0.162904167	555.0569026	392.1113378	38720	15.36734012	11.131
2010	292	11.67	5.56	9.99	0.1466625	282.4429187	124.3855309	38565	15.33834248	10.925
2010	293	13.33	2.78	10.43	0.1443875	414.7898982	271.7385645	38411	15.27060668	10.139
2010	294	15.56	3.33	12.19	0.1517625	699.3025205	347.0574259	38258	15.2210084	10.223
2010	295	13.33	3.33	10.58	0.159147917	490.3280585	282.2905054	38106	15.14857028	9.903
2010	296	10.56	3.33	8.57	0.166525	557.1833776	197.7326571	37955	15.09997964	9.619
2010	297	21.67	8.89	18.15	0.1739	1012.377238	300.9086076	37804	15.15965432	11.062
2010	298	22.78	10	19.26	0.189858333	789.3058313	292.8822202	37655	15.149354	11.73
2010	299	20.56	10.56	17.81	0.18865625	358.6443465	159.6884315	37507	15.16928288	12.293
2010	300	20.56	11.11	17.96	0.5158375	632.6654051	209.8228366	37361	15.42376796	13.032
2010	301	21.11	12.22	18.67	0.212004167	1297.96509	332.1233642	37215	15.49911704	11.995
2010	302	17.78	6.11	14.57	0.217233333	689.7388036	358.5730895	37071	15.510425	11.032
2010	303	9.44	1.11	7.15	0.2224625	444.2267866	155.9733536	36928	15.47224664	9.759
2010	304	14.44	1.67	10.93	0.22984375	808.029403	259.3493354	36787	15.47941208	9.935
2010	305	10.56	0	7.65	0.232933333	472.1719969	293.7119819	36647	15.48366656	9.054
2010	306	8.89	-2.78	5.68	0.240304167	319.3909071	371.8125668	36509	15.44515232	7.984
2010	307	8.89	-3.33	5.53	0.247679167	312.2789986	367.1941878	36372	15.43418024	7.603
2010	308	11.67	-1.67	8	0.604264583	83.69635213	355.4632834	36237	15.68138792	8.239
2010	309	7.22	4.44	6.46	0.2888375	175.9257212	54.8098496	36103	16.0187234	8.281
2010	310	7.78	0	5.64	0.269820833	172.1142941	100.7224709	35971	16.15341128	7.739
2010	311	6.67	-1.67	4.38	0.277195833	210.7492259	146.9910438	35841	16.294145	7.253
2010	312	7.22	-1.67	4.78	0.284570833	361.6596132	185.7458068	35713	16.40375384	7.055
2010	313	12.78	1.67	9.72	0.291952083	368.5225518	335.5141348	35586	16.55198888	7.398
2010	314	13.33	2.78	10.43	0.2993375	419.5066571	310.0616716	35462	16.69227476	7.865
2010	315	15.56	-0.56	11.13	0.25615	492.2783269	330.0317213	35339	16.78475372	7.506
2010	316	14.44	-1.67	10.01	0	481.0964535	337.9227122	35219	16.856744	6.819
2010	317	15.56	-2.78	10.51	0	559.4893169	340.6536752	35100	16.88764496	6.369
2010	318	16.11	-2.22	11.07	0	579.0470585	335.348102	34984	16.95941132	6.717
2010	319	16.11	1.11	11.99	0	372.2928587	248.0123315	34870	17.05312184	7.714
2010	320	11.11	5.56	9.58	0.537322917	152.0840852	203.0266118	34759	17.16956024	7.945
2010	321	13.33	6.11	11.35	0.203147917	320.9556925	44.64180784	34649	17.61493712	8.266
2010	322	10	4.44	8.47	0	232.0091213	67.80163279	34542	17.82934052	7.636
2010	323	7.22	0.56	5.39	0.0064375	269.3813889	64.19658517	34438	17.99548916	7.075
2010	324	8.33	1.67	6.5	0	277.0268488	233.4916997	34336	18.13431956	6.534
2010	325	9.44	0	6.85	0	207.7341228	107.2860356	34237	18.2321726	6.262
2010	326	10	0.56	7.4	0	298.3917824	257.8959578	34140	18.36585284	6.83
2010	327	16.11	7.78	13.82	0	539.9005792	237.1552899	34046	18.4975178	7.426
2010	328	16.67	1.11	12.39	0	692.4428835	91.38558049	33954	18.53804732	6.778
2010	329	6.11	1.11	4.74	0.507597917	181.2210866	238.7872793	33866	18.85646156	6.141
2010	330	6.67	1.67	5.29	0.2343625	222.6173954	31.3071048	33780	19.2510086	5.765
2010	331	5.56	-1.67	3.57	0.0618	302.8723865	234.1558002	33697	19.33318724	5.061
2010	332	1.67	-1.11	0.9	0.027897917	235.2704458	74.68713189	33618	19.36420016	4.703
2010	333	5.56	-4.44	2.81	0	198.9130146	285.5329895	33541	19.36151312	4.125
2010	334	7.22	-4.44	4.01	0.559314583	144.0269041	271.9509367	33467	19.6439882	5.186
2010	335	15.56	6.11	12.96	0.634014583	217.6643005	35.0959667	33397	20.60415716	6.895
2010	336	8.89	-3.33	5.53	0	225.6602918	59.24984248	33329	20.42479724	5.262
2010	337	0	-3.89	-1.07	0	141.7869422	117.1770329	33265	20.2782416	4.431
2010	338	0.56	-3.33	-0.51	0	141.1717228	105.6861222	33204	20.20445996	3.926
2010	339	1.11	-5	-0.57	0	208.3396032	135.5414228	33146	20.18094836	3.642
2010	340	0	-4.44	-1.22	0	185.6257966	181.157319	33092	20.10627104	2.995
2010	341	-1.67	-5.56	-2.74	0	148.6670345	112.8574196	33041	20.0683166	2.477
2010	342	-2.22	-6.67	-3.44	0	170.1421997	109.4410329	32993	20.02050968	2.021
2010	343	-2.22	-7.78	-3.75	0	169.1102716	141.160885	32949	19.938443	1.549
2010	344	-1.11	-7.78	-2.94	0.8478	92.37163869	278.3194871	32909	19.86701252	1.319
2010	345	-1.11	-6.11	-2.49	0	125.3133763	68.04100754	32872	19.81002488	1.152
2010	346	3.33	-6.67	0.58	6.78475	53.99989583	214.0411109	32838	19.9770692	1.559
2010	347	6.67	-5.56	3.31	0.14025	286.7707843	43.10753475	32808	20.38314812	1.355
2010	348	-2.78	-10.56	-4.92	0.25175	157.1837901	185.3396376	32782	20.24420576	1.049
2010	349	-6.11	-10	-7.18	0.0091	133.9123063	131.4019964	32759	20.03282528	0.692
2010	350	-4.44	-10	-5.97	0.00675	116.3516088	142.4384239	32740	19.68003932	0.226
2010	351	-3.89	-10	-5.57	0	127.3264968	133.26696	32724	19.27496804	0.106
2010	352	-1.11	-6.67	-2.64	0	177.9268931	146.6265591	32712	19.41178316	-0.042
2010	353	-0.56	-10.56	-3.31	0	125.3856509	173.7958048	32704	19.00223348	-0.117
2010	354	-1.67	-11.11	-4.26	0.0354	122.916714	199.5150922	32699	18.5854064	-0.09
2010	355	-1.67	-4.44	-2.43	0.0081	206.3356866	68.5882317	32698	18.71673548	-0.257
2010	356	1.67	-5	-0.17	0	258.9447398	261.5004434	32701	19.16502332	-0.209
2010	357	2.78	-3.89	0.94	0.0417	253.2793513	154.8191213	32707	19.4693306	-0.137
2010	358	1.11	-5	-0.57	0.0011	228.4464871	146.2933032	32717	19.57591652	-0.205
2010	359	0.56	-5	-0.97	0.0005	180.6076639	237.0277718	32731	19.58151452	-0.082
2010	360	-1.11	-6.11	-2.49	0.0301	171.8522103	95.08027726	32749	19.59170288	-0.135
2010	361	-2.78	-8.89	-4.46	0	194.8111694	94.07567897	32770	19.29198596	-0.17
2010	362	-2.22	-8.89	-4.06	0.0014	193.5319113	263.7063792	32794	18.97793816	-0.285
2010	363	1.11	-6.11	-0.88	0	209.7445961	213.9627993	32822	19.11990344	-0.283
2010	364	4.44	-7.22	1.24	0.0145	149.7636122	237.5259634	32854	19.06112444	-0.13
2010	365	3.33	-7.22	0.43	0	147.0148056	124.7939433	32889	19.24216376	-0.273
2011	1	7.39	-1.28	2.84	0	84.3787873	106.4983601	32928	19.4866844	-0.1
2011	2	7.5	-4.78	1.26	0	225.664475	91.81341179	32971	19.69414628	-0.303
2011	3	0.61	-8.39	-3.96	0	217.6790354	255.7526426	33017	19.87484972	-0.22
2011	4	5	-4.39	-0.29	0	253.9815858	277.4469243	33066	19.7973734	0.076
2011	5	-0.11	-6.5	-3.03	0	203.481149	253.3054742	33119	19.81282388	-0.149
2011	6	-2.39	-9.61	-5.2	0	105.4472655	168.0186285	33175	19.67108252	-0.025
2011	7	-2.61	-7.61	-5.33	0	106.5431119	184.05705	33234	19.58644076	-0.421
2011	8	-5.39	-8.5	-7.09	0	88.42337644	208.1397465	33296	19.61689388	-0.331
2011	9	-3.5	-8.78	-6.31	0	133.8076982	207.6969007	33362	19.61913308	-0.386
2011	10	-3.5	-9.5	-6.15	0	129.429187	173.2978972	33431	19.56819128	-0.392
2011	11	-4.22	-11.72	-7.45	0	53.77304574	187.1560457	33503	19.37875496	-0.227
2011	12	-4.11	-7.28	-5.92	0	107.3329835	100.7141964	33579	19.36767092	-0.368
2011	13	-3.11	-8.28	-6.06	0	147.5667999	147.5780373	33657	19.40069912	-0.395
2011	14	-3.39	-8.78	-6.26	0	122.1872403	250.2651609	33738	19.41547784	-0.4
2011	15	1.72	-8.72	-2.95	0	160.3978308	271.0920703	33822	19.40562536	-0.019
2011	16	-2.22	-7.5	-5.41	0	179.606131	103.4272317	33909	19.47291332	-0.651
2011	17	-4.5	-10.28	-6.84	0	137.349134	295.4089532	33999	19.4558954	-0.25
2011	18	0	-6	-3.32	0	84.28723335	120.8398451	34092	19.38838352	-0.196
2011	19	2	-2.5	0.46	0	90.55330943	210.3413578	34187	19.46171732	-0.108
2011	20	-2.5	-5.28	-4.06	0	134.581899	63.88683098	34285	19.59629324	-0.446
2011	21	-5.22	-13.61	-8.16	0	118.1069811	151.4850811	34386	19.6870928	-0.608
2011	22	-8	-17.39	-12.18	0	91.80237929	192.6419438	34489	19.6512656	-0.644
2011	23	-6.72	-13.89	-9.73	0	139.1887977	331.1368406	34595	19.5163538	-0.496
2011	24	-5.22	-20.72	-12.04	0	99.02286654	270.1701294	34703	19.2146216	-0.483
2011	25	-1.61	-6	-3.93	0	144.67623	244.9866146	34814	19.05877328	-0.42
2011	26	0	-6	-2.9	0	53.46332571	76.97423123	34926	19.14419876	-0.336
2011	27	0	-3.39	-2.25	0	145.8585162	76.53347412	35042	19.23824516	-0.436
2011	28	-0.72	-4.72	-2.64	0	96.94449149	164.1406752	35159	19.39734032	-0.338
2011	29	-0.78	-6	-3.54	0	78.13710559	171.825557	35278	19.51310696	-0.406
2011	30	0	-5.89	-2.16	0	170.2172043	90.65779661	35400	19.56483248	-0.428
2011	31	-3.78	-13.5	-6.84	0	149.8316548	151.9707795	35523	19.62226796	-0.489
2011	32	-0.61	-6.11	-3.21	0	65.09552564	341.8779489	35649	19.64208488	-0.222
2011	33	3.39	-5.11	-0.76	0	101.2420678	88.65831843	35776	19.74206516	-0.315
2011	34	-2.22	-8.5	-5.83	0	164.4112643	172.7234647	35905	20.03607212	-0.675
2011	35	0.39	-9.5	-4.56	0	134.4763957	336.3994616	36036	20.10268832	-0.472
2011	36	2.5	-6.5	-2.4	0.41	72.83014978	247.7796456	36169	20.10817436	-0.078
2011	37	1.5	-1.28	-0.19	0	189.4808243	110.5108669	36303	20.13795572	-0.07
2011	38	4.11	-0.61	0.91	0.05	154.4813626	194.2923161	36440	20.32123424	0.038
2011	39	0.11	-12.78	-5.59	0.52	130.8822062	173.4586762	36577	20.88360932	-0.697
2011	40	-3.72	-12.61	-8.11	0	177.4190287	275.276419	36716	20.9035382	-0.173
2011	41	-6.22	-12.61	-9.36	0	154.3806332	247.2097295	36857	20.7199238	-0.517
2011	42	0	-12.5	-5.98	0	188.1663526	395.414768	36999	20.41449692	-0.286
2011	43	0.22	-3.78	-1.98	0	243.9724771	353.8812428	37143	20.18665832	-0.253
2011	44	7.61	-5	2.18	0	327.2388831	217.9404618	37287	20.08522256	-0.371
2011	45	9	-0.72	5.03	0	343.6643219	291.6928112	37433	20.25338648	-0.326
2011	46	2.11	-6.61	-2.39	0	273.5628661	124.7360102	37581	21.0059816	-0.678
2011	47	8.78	-4.11	2.83	0	420.855031	409.8800657	37729	21.32271644	-0.536
2011	48	16.39	1.5	8.39	0	471.5663644	323.7427862	37879	22.25567912	-0.539
2011	49	18.78	5	12.15	0	741.2598755	302.0868811	38029	23.04880376	-0.404
2011	50	5.78	-2.5	0.34	0	366.7199823	261.3725151	38181	22.67105072	-0.162
2011	51	3.89	-5.5	-0.85	0	283.0744631	198.5375124	38334	22.172045	-0.078
2011	52	0	-9	-3.14	1.37	66.82485302	305.4605971	38487	22.68381416	-0.359
2011	53	-2.11	-11	-7.34	1.05	121.037933	95.58338078	38642	22.57532492	-0.566
2011	54	2.39	-14.28	-5.63	0.01	145.8429263	424.6009073	38798	22.08337268	-0.276
2011	55	2.22	-8.89	-2.23	0.02	143.1852252	450.1178313	38954	21.9178958	0.175
2011	56	1	-2.5	-0.03	2.21	89.88812531	149.90596	39111	24.23893856	-0.168
2011	57	1.72	-6.11	-1.47	0	204.4900323	85.74870763	39269	23.8615214	-0.049
2011	58	8.72	0.28	3.86	0	314.9767432	315.0007609	39428	24.37911248	-0.155
2011	59	12.72	-1.11	5.55	1.55	172.927989	311.4301412	39587	24.8876348	0.585
2011	60	5.11	-4.61	-0.25	0	277.9108256	49.63710469	39747	23.46809396	0.491
2011	61	6.5	-7.22	0.76	0	297.98789	443.1894404	39907	22.85421728	0.508
2011	62	0.11	-11	-5.06	0	250.5570745	408.9868224	40068	22.42541048	0.032
2011	63	5.89	-2.28	1.76	0	439.1743867	445.2839672	40230	22.24157216	0.377
2011	64	12.89	3.5	8.23	0.17	322.1445045	305.715711	40392	22.40917628	1.473
2011	65	10.5	-2.5	4.67	4.28	72.79807383	193.9366046	40555	25.32920504	2.764
2011	66	4.22	-4.5	-0.56	1.43	117.0776683	44.14666732	40718	24.67446296	1.628
2011	67	5	-7.11	-0.91	0	236.7162771	488.3361626	40882	24.5411186	1.305
2011	68	3.72	-0.39	1.98	0.29	238.7076464	386.7552989	41046	24.58892552	1.141
2011	69	10	3.11	6.28	1.655	92.1446856	178.5083718	41210	26.72568212	0.637
2011	70	3.61	0	1.27	1.615	160.4499372	117.1632145	41375	25.90960568	0.538
2011	71	13.72	0	6.2	0	439.634628	108.6356765	41540	24.65520584	1.574
2011	72	5.28	1.72	3.1	0	296.8357061	336.4970627	41705	23.91738944	2.407
2011	73	7	-0.72	2.65	0	335.2385801	81.1868641	41870	23.39151332	2.476
2011	74	6.72	-4.28	1.93	0.04	224.5723728	357.4961462	42036	23.10702296	2.402
2011	75	9	1.5	4.91	0.87	119.3623168	230.4166627	42202	25.38720032	2.837
2011	76	17.78	3.11	10.11	0	460.2264635	115.3606731	42368	24.08107496	3.805
2011	77	22.89	10.72	17.01	0	1097.657604	411.1503738	42534	23.59203368	5.585
2011	78	11.61	0	5.71	0	490.412759	315.4225896	42701	23.23085072	5.414
2011	79	9.28	-4.61	2.99	0	349.8854003	456.0646418	42867	22.927775	4.576
2011	80	22.22	2.39	9.98	0.71	377.5470406	467.2418377	43033	24.63438128	5.092
2011	81	10.78	1.28	6.64	0	408.6421882	323.0413889	43200	24.0848816	5.663
2011	82	1	0	0.43	2.545	50.81572214	288.9037495	43366	26.60498924	4.534
2011	83	1.89	-3.22	-0.23	0.435	138.7570156	24.92936393	43533	25.18645604	3.649
2011	84	2.11	-6.22	-2.57	0	242.6441757	219.4789126	43699	23.94806648	2.905
2011	85	2	-6.61	-2.51	0	285.3082225	418.6064288	43865	23.48723912	2.782
2011	86	3.89	-6.39	-1.41	0	357.9925084	510.5396984	44032	23.19524744	2.872
2011	87	5.11	-7.5	-1.44	0	355.0638923	534.8530929	44198	22.95643676	2.66
2011	88	7.78	-5.89	0.93	0	398.5031271	536.8791786	44363	22.8113366	2.707
2011	89	7.22	-5.11	0.53	0.26	241.1811655	526.3012643	44529	22.68739688	2.729
2011	90	2.5	0	1.16	0.25	53.48355753	183.6876832	44695	22.93146968	2.588
2011	91	4.72	0.5	2.17	0.21	151.2320475	127.7076906	44860	23.66738276	2.871
2011	92	9	-1.22	3.72	0	306.5880573	168.9902943	45025	23.6056928	3.001
2011	93	10.39	2.11	5.54	0.08	390.7609258	310.3414694	45190	23.40203756	3.902
2011	94	17.28	4	10.05	0.225	400.0246809	333.8918067	45354	24.39411512	4.885
2011	95	14.11	0.22	4.98	1.975	215.5069238	187.2107298	45518	26.53770128	5.314
2011	96	6.11	-2.11	2.67	0.04	207.7211206	109.618419	45681	24.41818652	4.303
2011	97	10	2.5	4.76	0	240.3717709	188.2826262	45845	23.92690604	5.143
2011	98	5.28	2.72	4.03	2.54	112.3452463	328.6970244	46007	26.08325564	5.334
2011	99	7.11	3.39	5.37	0.06	121.5676908	44.03890056	46169	24.94339088	5.022
2011	100	15.72	6.22	10.2	0	170.0950817	82.30083529	46331	24.0736856	5.789
2011	101	24	9.61	16.29	0.43	447.001849	216.0080014	46492	24.3149594	7.15
2011	102	15	7.22	9.66	0.695	256.124102	188.8084368	46653	25.70751788	7.882
2011	103	10	6	7.77	1.475	123.5951486	113.2604618	46813	26.35867724	7.404
2011	104	19	3	11.71	0	633.1270564	91.34158648	46972	24.75193928	7.672
2011	105	16	3	9.38	0	559.1321743	522.5219282	47131	24.09059156	8.409
2011	106	11	5	7.28	2.26	154.4284276	498.6451818	47289	25.51136396	8.03
2011	107	13	2	8.52	0.08	533.5421598	36.35712178	47446	25.04728976	7.536
2011	108	17	3	9.68	0	627.2491852	323.2308306	47602	24.15272936	7.656
2011	109	9	6	7.04	1.18	114.0064435	271.3151514	47758	24.95335532	7.819
2011	110	23	8	14.21	0	461.2472047	46.62596009	47912	25.02075524	8.467
2011	111	12	3	7.59	0	606.8573761	291.0947655	48066	24.1968416	8.722
2011	112	5	1	3.14	0.415	247.9605478	483.8413074	48219	23.97113024	7.635
2011	113	21	4	10.66	0.595	250.0726257	113.8662808	48370	25.29919976	7.476
2011	114	21	14	17.03	0.01	608.8599143	262.7108675	48521	24.49286384	9.291
2011	115	27	12	18.82	0	775.0269762	141.2506215	48671	24.1548566	10.716
2011	116	27	13	19.34	0.71	632.2923089	449.7010795	48819	25.26135728	12.288
2011	117	26	13	19.72	1.34	533.9737631	389.1268431	48966	25.5946622	13.073
2011	118	22	11	17.66	3.58	907.1091089	258.0631007	49112	26.44421468	14.361
2011	119	12	5	9.06	0	432.4672732	478.4025418	49257	24.5439176	12.825
2011	120	19	5	10.82	0	613.36622	212.766948	49401	24.08644904	11.669
2011	121	15	9	11.57	0.37	388.0855019	501.2703712	49543	23.8928702	11.586
2011	122	19	10	14.35	0.01	277.6751801	75.22482539	49683	23.93608676	11.498
2011	123	23	7	15.24	2.395	310.1178453	224.6086546	49823	25.18399292	12.322
2011	124	11	6	7.56	0.755	277.1896219	176.3702762	49960	25.94498504	11.744
2011	125	17	5	10.84	0.07	767.1197213	176.3151749	50096	24.63035072	11.091
2011	126	19	4	12.47	0	778.3354059	564.2022655	50231	24.14657156	11.272
2011	127	18	6	11.88	0	562.7036944	432.1937136	50363	23.8576028	11.527
2011	128	20	5	13.19	0	659.2513541	346.4833548	50495	23.66234456	11.659
2011	129	20	8	13.71	0	922.9908254	489.2338417	50624	23.50369724	12.139
2011	130	23	5	14.58	0	957.131792	580.6207759	50751	23.32165028	12.203
2011	131	24	10	17.83	0	1171.392749	535.7381135	50877	23.17766972	12.817
2011	132	25	9	18.15	0	773.8154761	566.3514118	51000	22.96897628	13.122
2011	133	19	16	17.37	0	356.7163025	398.9480067	51122	22.81447148	13.325
2011	134	17	15	15.47	0.13	141.2905438	335.2574306	51241	22.70351912	13.088
2011	135	20	14	15.39	1.64	136.8350824	71.01625842	51358	24.77612264	13.141
2011	136	18	10	13.68	0.08	268.4205069	143.1583743	51473	25.0566944	13.168
2011	137	16	10	12.79	0.82	141.4360494	267.0395456	51586	25.23269552	13.027
2011	138	18	12	14.46	2.07	158.981868	75.55419077	51697	26.10284864	13.13
2011	139	19	10	13.59	0.8	162.2604528	142.6460959	51805	25.78678556	12.979
2011	140	21	12	14.91	0.68	264.7202233	218.9709497	51910	25.61526284	13.039
2011	141	24	11	17.78	0.67	462.1649319	259.0549083	52014	25.42414712	13.416
2011	142	22	14	17.72	0	321.1734508	415.8411751	52114	24.5864624	13.923
2011	143	23	16	18.94	3.23	248.354826	243.9350532	52212	25.491659	14.743
2011	144	23	18	20.25	0	586.9197024	312.7111149	52308	25.29035492	15.384
2011	145	26	13	20.18	0	685.6475961	247.1658206	52400	24.55108304	15.396
2011	146	29	17	22.78	0.22	733.7509326	518.5779006	52490	24.34138196	15.924
2011	147	24	15	18.88	2.445	350.6688658	487.9796489	52577	27.02573492	16.174
2011	148	25	16	20.36	1.115	448.5789061	326.9772132	52662	25.95304616	16.122
2011	149	29	19	23.73	0.01	720.0551821	510.1689513	52743	24.87789428	16.656
2011	150	32	20	26.48	0	1069.704861	479.4401658	52821	24.43800344	17.402
2011	151	32	19	26.33	0	965.9918924	508.808719	52896	24.05644376	17.882
2011	152	31	21	25.75	0	1365.070514	497.4265891	52969	23.69705216	18.212
2011	153	22	13	18.92	0	1364.624624	492.0100117	53038	23.20689128	17.537
2011	154	24	7	16.29	0	963.8769135	596.3567407	53103	22.68381416	16.267
2011	155	23	9	15.31	0.47	390.9244259	601.869315	53166	22.351181	15.516
2011	156	29	15	20.97	0	933.6911812	319.5470174	53225	22.39406168	15.874
2011	157	27	12	19.93	0	843.3819276	494.9626509	53281	22.0673624	15.955
2011	158	27	14	20.39	0	526.3971994	576.8095211	53334	21.65378216	15.954
2011	159	33	16	24.94	0	892.1196537	308.175524	53383	21.28263476	16.536
2011	160	33	21	25.37	0.03	695.1483207	519.3977428	53429	20.84375156	17.416
2011	161	28	18	22.32	0.83	519.6388179	396.3324793	53471	20.54772932	17.408
2011	162	27	17	21.47	2.35	435.4991709	421.4760419	53510	24.21005288	17.653
2011	163	27	15	20.89	0.08	610.7062267	417.5602473	53546	23.7210116	17.619
2011	164	22	10	16.38	0	707.3865301	429.6393788	53577	23.16479432	16.65
2011	165	21	12	15.72	0.05	596.3239381	375.0018655	53606	22.6809032	15.976
2011	166	25	7	16.89	0	613.9134419	380.959407	53630	22.21694096	15.393
2011	167	21	13	16.33	0.53	236.5529763	563.3436283	53651	22.25590304	15.557
2011	168	25	14	18.46	0.7	406.7323878	153.2193631	53669	23.68887908	15.808
2011	169	27	15	21.02	0	656.5307334	343.926996	53682	22.97390252	16.249
2011	170	27	15	21.25	0	713.4913007	459.2224499	53693	22.3422242	16.632
2011	171	26	17	21.09	0	805.7968275	427.2692415	53699	21.7202864	17.043
2011	172	28	18	23.08	1.52	494.9294917	394.9672638	53702	23.69179004	17.645
2011	173	28	21	24.01	0.01	591.6746848	461.0399061	53701	22.89788168	18.194
2011	174	26	18	22.53	0.04	500.3190562	362.8600641	53696	22.27986248	18.371
2011	175	22	17	19	0.205	302.8778545	300.2261027	53688	21.69968576	17.733
2011	176	20	15	17.65	0.145	348.3183233	199.2726358	53676	21.44240168	17.239
2011	177	21	14	17.59	0	404.5443554	152.4038128	53661	21.01057196	16.849
2011	178	24	12	18.75	0	440.3235084	265.8781156	53641	20.53709312	16.653
2011	179	28	18	21.88	0	599.76661	399.8502397	53619	20.14153844	17.26
2011	180	24	15	19.56	0	914.0166007	375.1277616	53592	19.59662912	17.392
2011	181	26	12	19.51	0	810.6846789	497.310836	53562	18.96226376	16.887
2011	182	28	11	20.17	0	906.7756684	560.832913	53529	18.36730832	16.607
2011	183	29	11	21.57	0	774.1260504	577.7603522	53491	17.82172724	16.746
2011	184	30	21	24.92	0	1017.411159	477.2231389	53451	17.39818256	17.756
2011	185	28	17	22.61	0	855.2423093	363.1635553	53407	16.87622504	17.839
2011	186	30	16	23.39	0	1003.205145	415.0450908	53359	16.35057284	17.806
2011	187	32	15	24.01	0	1223.751224	536.381106	53308	15.80566352	17.723
2011	188	30	18	23.71	0	808.2997693	542.5817591	53254	15.34170128	18.078
2011	189	24	18	21.22	0.1	299.1231615	399.9035078	53196	15.0480302	18.127
2011	190	27	16	19.92	0	905.6180049	175.3265456	53135	14.78447636	17.975
2011	191	31	21	26.38	0	1377.987153	567.6949558	53071	14.19086444	17.987
2011	192	33	19	25.86	0	1144.131538	550.6774583	53004	13.7481746	18.482
2011	193	32	21	25.9	0	1427.08363	426.382578	52933	13.43222348	19.129
2011	194	29	19	23.16	0	1136.18012	478.8738744	52860	13.08436376	18.898
2011	195	28	13	20.94	0	1131.296629	401.4770854	52783	12.73907912	18.19
2011	196	28	13	21.53	0	1144.726678	575.7728782	52703	12.43678712	17.811
2011	197	29	14	22.41	0	1139.097196	547.3620296	52620	12.1896914	17.709
2011	198	32	17	24.96	0	1261.36161	570.7450652	52535	11.99846372	18.084
2011	199	34	19	25.81	0	1134.736791	489.4187164	52446	11.81563304	18.631
2011	200	33	21	25.54	0	1171.155025	440.0261484	52355	11.71990724	19.376
2011	201	35	19	26.74	0	1369.187191	344.7729856	52261	11.58141272	19.835
2011	202	38	21	29.47	0	1574.897963	403.7978108	52164	11.4451574	20.36
2011	203	39	26	32.11	0	2339.225967	531.7984058	52065	11.38514684	21.335
2011	204	34	24	28.82	0	1897.36019	507.9938225	51963	11.20130852	21.393
2011	205	33	21	27.11	0	1376.589892	436.3805006	51858	11.04031004	21.406
2011	206	28	20	21.94	2.03	341.0123866	381.5118935	51751	10.88625308	20.827
2011	207	31	17	24.1	0	966.3012202	224.0688587	51642	10.93193276	20.219
2011	208	30	14	22.52	0	1107.672088	460.8337667	51530	11.07468176	19.679
2011	209	23	18	20.53	2.04	353.3895006	551.3809829	51417	11.2178786	19.359
2011	210	33	19	25.12	0.22	477.6366291	127.8992398	51300	11.43922352	19.734
2011	211	32	19	25.54	0	1271.705597	362.4820445	51182	11.71408532	20.05
2011	212	31	16	22.17	0	1126.565505	569.9095022	51062	11.90173028	19.713
2011	213	33	17	22.54	0	777.155927	539.0855533	50939	12.04123244	19.837
2011	214	31	18	24.97	0.01	1187.275515	473.7288596	50815	12.0547796	19.766
2011	215	24	19	21.46	0.66	340.4327358	492.6163194	50688	12.07011812	19.799
2011	216	27	20	22.46	0	474.8510758	95.50005934	50560	12.1443476	19.871
2011	217	26	18	21.81	0	424.0453407	377.3233988	50430	12.123635	19.674
2011	218	24	20	21.8	2.345	227.4922383	253.4205137	50298	12.44339276	19.754
2011	219	29	20	24.11	0.395	465.4171522	147.7657882	50164	13.65995012	20.207
2011	220	29	20	23.28	0	567.7703852	285.9237043	50029	14.1909764	20.297
2011	221	27	18	21.44	0.58	440.0451226	299.5737794	49892	14.32129784	19.886
2011	222	26	18	21.92	0	841.1497484	372.7830928	49754	14.40627548	19.499
2011	223	25	13	19.44	0	846.0195116	375.2114726	49614	14.31514004	18.812
2011	224	26	11	18.97	0	674.8649338	500.1602725	49472	14.10017684	18.083
2011	225	25	14	19.57	0.19	346.1828453	543.4491587	49330	13.95205376	18.114
2011	226	25	17	20.31	0.835	343.3923465	283.7916074	49186	13.9508222	18.696
2011	227	23	17	18.31	1.035	153.9111197	235.9377447	49040	13.93257272	18.472
2011	228	28	16	21.83	0.01	820.6692543	140.3907228	48894	13.9995248	18.451
2011	229	28	13	20.77	0	698.1679452	458.480224	48746	13.95888332	18.268
2011	230	28	16	22.32	0	741.0306576	537.4631973	48597	13.90906112	18.606
2011	231	25	15	18.66	0.52	315.1752515	496.6542955	48446	13.76754368	18.35
2011	232	28	14	20.79	0	523.4158561	324.4836318	48295	13.69756868	18.225
2011	233	26	17	20.37	0.03	388.3266346	501.6421079	48143	13.61259104	18.539
2011	234	23	15	19.81	0	953.2911748	266.3639508	47990	13.4318876	18.218
2011	235	24	10	17.44	0	649.9710147	476.7352621	47836	13.05536612	17.221
2011	236	26	14	20.49	0	761.7834781	543.8703047	47681	12.7209416	17.201
2011	237	26	19	22.33	0.53	570.6827336	327.2718148	47525	12.6173786	18.127
2011	238	26	14	20.47	0	597.6503404	264.0164246	47368	12.50642624	18.194
2011	239	25	17	20.37	0.21	342.6153535	436.4130693	47210	12.33210452	18.385
2011	240	23	14	19.47	2.38	523.4013539	199.0182777	47052	12.26604812	18.403
2011	241	22	10	15.92	0	506.5942163	251.8999851	46893	12.27388532	16.991
2011	242	25	10	17.23	0	590.833605	532.3161296	46734	12.32135636	16.484
2011	243	25	11	18.24	0	498.883311	545.1846563	46573	12.3761048	16.614
2011	244	24	15	19.55	0.21	351.5993171	388.0563204	46413	12.45481268	17.088
2011	245	23	19	21.31	0	423.4286166	328.0867873	46251	12.55232984	17.825
2011	246	31	20	24.32	0	564.1490699	174.7021849	46089	12.6084218	18.502
2011	247	29	19	23.03	0.04	506.0827016	429.2613713	45927	12.56722052	19.193
2011	248	21	14	17.36	2.085	124.4651845	359.9799624	45764	12.47989172	18.666
2011	249	15	13	14.11	2.88	83.44901551	83.52776316	45600	12.38069516	16.843
2011	250	17	14	15.25	6.435	108.8916616	57.1932566	45437	13.503542	16.046
2011	251	21	16	18.17	0.67	183.9549208	109.136707	45272	17.25129104	16.913
2011	252	24	17	19.98	0.38	206.9057144	171.1613461	45108	18.60320804	17.648
2011	253	25	18	20.44	0.15	293.156313	152.4101195	44943	19.22536976	18.086
2011	254	22	15	17.87	0.26	240.3999785	269.2845147	44778	19.4950814	17.745
2011	255	23	13	18.06	0	327.0662801	259.0078677	44613	19.61051216	17.409
2011	256	26	14	20.19	0	510.8971019	448.5574504	44447	19.70041604	17.259
2011	257	25	17	20.19	0	367.5146226	452.4085951	44281	19.76927144	17.442
2011	258	18	7	12.87	1.27	268.5256219	216.6577355	44115	19.93015796	16.788
2011	259	16	5	10.29	0	293.6481955	78.84834695	43949	19.92713504	14.682
2011	260	15	7	10.62	0	272.6941802	391.9074983	43783	19.95825992	14.191
2011	261	18	6	12.03	0	351.3726941	357.9413531	43617	19.94874332	13.876
2011	262	16	8	12.74	0	257.6482696	490.683061	43450	19.92758288	13.856
2011	263	21	14	16.79	0.98	196.3728771	293.2874965	43284	20.1522866	14.658
2011	264	22	15	18.51	0.01	274.4685525	207.334462	43117	20.36243552	15.56
2011	265	23	17	20.11	0	313.2125903	247.847035	42951	20.4635354	16.379
2011	266	20	16	17.96	1.1	127.1620299	235.2374953	42784	20.58210104	16.598
2011	267	22	14	17.54	0	321.2252091	98.87639026	42618	20.83445888	16.63
2011	268	27	16	19.94	0	362.4658668	391.0123905	42452	20.90499368	16.975
2011	269	25	18	20.83	0	390.0969181	292.5209289	42286	20.94541124	17.395
2011	270	21	17	19.35	4.315	166.0025522	292.1411918	42120	21.53196968	17.794
2011	271	22	17	19.08	1.945	166.3470113	144.1488773	41954	21.9755552	17.908
2011	272	18	11	15.07	0.38	211.9542313	135.0366134	41788	22.12244672	17.187
2011	273	15	10	13.11	0	282.5723169	206.9905581	41623	21.98943824	15.781
2011	274	10	5	7.97	0.45	131.0824398	102.7541608	41458	21.82362548	14.148
2011	275	7	3	5.09	2.14	79.75047454	46.40152084	41293	22.35274844	11.772
2011	276	11	5	7.69	0.32	81.81947773	105.1682754	41129	22.23071204	11.551
2011	277	16	7	11.28	0.02	161.5475376	186.8919783	40964	22.1541314	12.074
2011	278	21	9	14.11	0.01	422.8299574	128.2861204	40801	22.05381524	12.765
2011	279	18	3	10.46	0	367.8988448	434.1498388	40637	21.87826196	12.261
2011	280	21	3	11.44	0	317.6694278	456.3357711	40474	21.74446976	12.111
2011	281	23	6	14.17	0	350.8764046	429.1208821	40312	21.63866756	12.512
2011	282	26	8	15.44	0	384.7241277	423.7729265	40150	21.5529062	12.976
2011	283	22	9	15.14	0	259.9311488	418.7590337	39989	21.44172992	13.285
2011	284	20	9	15.07	0	312.4661567	281.2095511	39828	21.3558566	13.554
2011	285	12	11	11.8	1.21	138.3215105	231.2936698	39667	21.59892176	13.666
2011	286	16	12	14	0.37	94.68750386	51.03234788	39508	22.59894848	13.599
2011	287	16	9	13.29	1.99	222.6972078	139.1742611	39349	23.4635036	13.998
2011	288	14	9	11.18	0.01	575.3819567	88.57926565	39191	22.88982056	12.867
2011	289	17	9	12.17	0.06	643.5249797	289.4279968	39033	22.48844396	12.607
2011	290	17	7	11.61	0.27	580.2550671	266.6118428	38876	22.91411588	12.44
2011	291	19	10	13.86	0	908.5849883	416.7839876	38720	23.54590616	12.374
2011	292	17	12	14.69	0.04	405.4649941	331.4184623	38565	23.67040568	13.194
2011	293	14	7	8.98	2.19	311.4003266	100.3929603	38411	25.3287572	12.762
2011	294	9	5	6.92	0	260.7722241	111.5659993	38258	24.44572868	11.467
2011	295	10	4	7.78	0	282.0575436	113.286884	38106	24.15855128	11.09
2011	296	15	0	7.49	0	250.4022003	101.5067843	37955	23.94750668	10.415
2011	297	14	6	9.76	0.12	255.222486	358.105756	37804	23.8525646	10.835
2011	298	15	7	10.44	0	491.0023087	179.9770548	37655	23.80375004	10.845
2011	299	18	4	11.28	0.04	323.2649972	330.4374917	37507	23.71183088	10.948
2011	300	14	1	7.28	1	109.7539375	154.2768127	37361	24.36970784	11.161
2011	301	6	-2	2.48	0.02	180.439483	34.93575171	37215	24.6793892	9.375
2011	302	3	0	0.66	1.64	47.81927445	194.7597313	37071	25.26460412	7.995
2011	303	6	-3	0.86	0.02	112.3594484	65.79495234	36928	25.20347396	6.723
2011	304	8	-3	2.08	0	169.975924	378.8091445	36787	24.71812736	6.867
2011	305	12	0	5.78	0	252.8037555	204.5833493	36647	24.44113832	7.256
2011	306	14	0	6.79	0.01	250.2820004	354.6736695	36509	24.25315748	7.338
2011	307	17	2	8.58	0	321.9482497	332.0181183	36372	24.1542968	7.815
2011	308	10	1	6.6	0	465.1227612	300.886994	36237	24.08365004	8.35
2011	309	10	-2	4.08	0	369.6619987	355.1987369	36103	23.92444292	7.151
2011	310	12	1	5.57	0	338.2175578	357.5857218	35971	23.79535304	6.58
2011	311	19	0	9.18	0	333.559344	350.68151	35841	23.74519496	6.81
2011	312	20	4	11.64	0.01	475.7059347	330.8304539	35713	23.73008036	7.612
2011	313	18	2	10.69	0.01	474.7463512	329.5105098	35586	23.6818256	7.831
2011	314	12	2	6.26	0.23	309.8020774	334.9518358	35462	23.79065072	8.336
2011	315	5	0	1.64	0.01	244.0258988	113.8071253	35339	23.71888436	7.027
2011	316	15	-1	6.96	0	382.9928512	142.546296	35219	23.61957584	6.288
2011	317	19	6	11.68	0	645.6130953	316.0548433	35100	23.6090516	6.903
2011	318	18	10	12.61	0.03	443.9936583	196.3298651	34984	23.64521468	7.737
2011	319	13	10	11.46	0.6	93.35891379	108.2716949	34870	24.02229596	8.934
2011	320	12	6	9.48	0.875	87.09643646	63.74199488	34759	24.8529272	9.269
2011	321	5	-1	2.11	0.035	283.0021727	41.13555947	34649	25.00194596	8.11
2011	322	5	-4	0.52	0	328.9102572	130.3402814	34542	24.48077216	6.185
2011	323	10	-2	4.47	0	462.0117995	309.8082351	34438	24.24017012	5.626
2011	324	16	5	10.85	0	457.3885046	298.6127097	34336	24.17982368	6.628
2011	325	12	4	6.36	0.55	104.6270259	78.22501972	34237	24.42815096	7.608
2011	326	8	2	5.02	2.075	56.92103198	84.42530756	34140	25.36156148	7.479
2011	327	9	2	5.95	3.505	150.4518932	21.85366857	34046	26.07015632	7.472
2011	328	9	1	4.35	0	218.3235245	46.7916593	33954	24.93544172	6.43
2011	329	15	2	8.19	0	384.815776	265.4625288	33866	24.62699192	6.142
2011	330	17	5	10.49	0	463.963222	286.743132	33780	24.44013068	6.313
2011	331	15	4	10.69	0.03	374.1226631	222.0108615	33697	24.34440488	6.824
2011	332	17	12	14.6	0	480.5841491	142.5290023	33618	24.33085772	7.993
2011	333	16	3	12.62	1.14	247.3911582	142.3283146	33541	24.95626628	9.031
2011	334	4	1	2.52	0.18	151.4504894	34.30722802	33467	25.34140868	7.82
2011	335	7	-1	2.01	0	243.5794366	91.56930263	33397	24.8103824	6.297
2011	336	7	-3	1.31	0	164.0506581	279.0978427	33329	24.49946948	5.335
2011	337	6	-4	0.84	0	163.6137885	192.9748985	33265	24.33410456	4.701
2011	338	10	1	5.22	0	245.146767	272.5988435	33204	24.19605788	4.499
2011	339	12	3	6.96	0	223.0663977	264.0441682	33146	24.14825096	5.205
2011	340	13	7	11.13	0.49	67.4978519	123.8833555	33092	24.38638988	6.855
2011	341	7	0	3.67	3.08	54.44580384	40.02009624	33041	26.11326092	7.015
2011	342	2	-3	-0.58	0.28	160.4110426	14.14845573	32993	25.55928284	5.203
2011	343	5	-4	0.55	0	157.4686792	147.25412	32949	24.85382288	4.331
2011	344	1	-5	-0.97	0	223.6229024	268.6023276	32909	24.57605012	3.961
2011	345	2	-8	-3.33	0.01	164.4757764	202.2674312	32872	24.324476	2.743
2011	346	4	-8	-2.54	0	149.3445085	269.1620988	32838	24.1055942	2.038
2011	347	8	-7	-0.04	0	179.1375684	249.5285296	32808	23.93687048	1.725
2011	348	6	0	2.48	0.125	194.9766365	256.9205357	32782	23.97639236	2.431
2011	349	14	3	8.05	0.16	177.9291617	76.2523276	32759	24.13044932	3.626
2011	350	8	0	2.16	0.135	313.4938194	52.01472205	32740	24.39825764	4.073
2011	351	1	-3	-0.52	0	204.032953	160.3439677	32724	24.30477104	3.48
2011	352	0	-4	-2.26	0.05	101.7329631	85.38224505	32712	24.20109608	3.003
2011	353	7	-4	2.24	0	161.1203799	114.5955235	32704	24.13313636	2.567
2011	354	6	1	3.06	0.47	101.0956681	131.381449	32699	24.24509636	3.498
2011	355	9	2	5.28	1.285	60.20162889	38.10875283	32698	25.59051968	4.169
2011	356	9	6	7.61	0.315	273.3833598	27.8774961	32701	25.60462664	5.12
2011	357	6	-1	3.02	1.24	173.5496946	79.08765708	32707	25.96569764	5.154
2011	358	2	-2	-0.17	0	211.8539392	61.69398172	32717	25.05243992	3.986
2011	359	8	-3	2.49	0	240.7086345	199.9029361	32731	24.72204596	3.2
2011	360	3	-2	1.18	0.01	223.6356529	251.7825277	32749	24.54906776	3.204
2011	361	4	-1	1.93	1.69	116.4362494	116.3527617	32770	25.18477664	2.777
2011	362	2	-6	-1.83	0.1	165.6504913	34.93828139	32794	25.4256026	2.657
2011	363	0	-8	-3.72	0	106.2776828	68.2196088	32822	24.81474884	1.814
2011	364	4	-2	1.19	0.04	97.87431307	126.4368418	32854	24.64893608	1.895
2011	365	7	0	3.92	0.06	115.7987919	109.3815561	32889	24.70424432	2.593
