"Shalehills,"	2012	:	input	for	MTCLIM	v4.3				
MTCLIM	v4.3	OUTPUT	FILE	:	Mon	Jan	16	16:32:50		
	yday	Tmax	Tmin	Tday	prcp	VPD	srad	daylen	SoilW	SoilT
		(degC)	(degC)	(degC)	(cm)	(Pa)	(Wm-2)	(s)	(%)	(deg C)
2008	1	4.44	-2.78	2.46	0.945	162.1754386	107.3576895	32928	13.97397852	2.213607307
2008	2	3.89	-5.56	1.29	0.02	187.1368421	242.3626217	32971	13.9897234	1.922296567
2008	3	-3.33	-11.11	-5.47	0	101.5438596	153.795681	33017	13.92126232	1.521006839
2008	4	-4.44	-10.56	-6.13	0	79.34736842	210.6844795	33066	13.40214784	0.939721136
2008	5	3.33	-9.44	-0.18	0	213.3263158	184.7731816	33119	13.74596935	-0.345185197
2008	6	5.56	-0.56	3.88	0.09	153.9578947	216.999156	33175	13.48028909	-0.415981387
2008	7	7.78	5	7.01	0.035	91.50175439	201.3661912	33234	16.27203109	0.205822891
2008	8	18.89	6.11	15.38	0.025	564.2736842	215.6980118	33296	16.29302426	1.953353386
2008	9	19.44	8.33	16.39	0.06	537.6280702	150.879084	33362	14.56738551	4.759821242
2008	10	11.67	-0.56	8.31	0	356.7017544	204.7227424	33431	13.82002859	6.114855876
2008	11	7.78	-0.56	5.49	2.36	221.4175439	101.7295765	33503	14.25015535	5.318064788
2008	12	10.56	2.78	8.42	0	250.8	220.641115	33579	14.13364325	4.350071592
2008	13	6.11	-2.22	3.82	0	199.2421053	135.333987	33657	13.84207142	4.34840187
2008	14	3.89	-2.22	2.21	0.12	138.4210526	111.5724702	33738	13.45019887	3.402003738
2008	15	2.78	-2.78	1.25	0	119.7754386	163.3214476	33822	13.23350268	2.816933333
2008	16	-1.11	-2.78	-1.57	0	32.70175439	175.9470937	33909	12.75964013	2.669775214
2008	17	0	-3.33	-0.92	0.57	65.66315789	56.70431483	33999	12.01776476	1.815657022
2008	18	2.22	-2.22	1	0.33	96.6877193	269.1626188	34092	11.92154606	1.616960167
2008	19	2.78	-6.67	0.18	0	173.9508772	105.2589581	34187	12.23702678	1.320974206
2008	20	-1.11	-12.22	-4.17	0	146.877193	205.0519469	34285	12.37149972	1.305056195
2008	21	-10	-13.89	-11.07	0	37.60701754	306.8234165	34386	12.21603361	0.557466233
2008	22	-5	-13.89	-7.44	0	98.44210526	78.45701528	34489	12.14827231	-0.340621291
2008	23	2.78	-6.11	0.33	0	167.4526316	314.5387484	34595	14.99447994	-0.846992157
2008	24	-2.78	-7.78	-4.15	0	76.32280702	179.3039219	34703	16.96270645	-0.990365575
2008	25	-2.22	-10	-4.36	0	109.6210526	321.8284598	34814	13.26382615	-1.084092607
2008	26	-3.89	-10	-5.57	0.04	82.45614035	144.0329554	34926	12.13171103	-1.074630852
2008	27	-2.78	-8.33	-4.31	0	82.82807018	171.1772159	35042	11.08205243	-0.965431067
2008	28	-0.56	-5	-1.78	0	80.60350877	214.1984129	35159	9.580690734	-1.224905784
2008	29	2.22	-2.22	1	0.4	96.6877193	60.02176994	35278	11.01825651	-1.137301064
2008	30	5.56	-1.11	3.72	1.5	164.3087719	331.9026836	35400	11.92189595	-0.948177279
2008	31	0.56	-8.89	-2.04	0	149.9578947	310.5629592	35523	11.30423017	-0.781427761
2008	32	1.11	-7.78	-1.33	2.715	149.9017544	46.30497349	35649	11.83570731	-0.702616907
2008	33	2.78	-2.22	1.4	0.005	110.245614	73.32927102	35776	15.41224407	-0.56369608
2008	34	1.11	-5.56	-0.72	0	123.1789474	260.4022003	35905	16.29104158	-0.358431654
2008	35	6.11	-5	3.06	0.02	238.077193	38.36863137	36036	15.80411661	-0.441138524
2008	36	5	0.56	3.78	1.02	115.4596491	80.53543089	36169	13.90913294	-0.266819602
2008	37	13.33	3.33	10.58	0.4	351.2280702	78.46806049	36303	12.51122093	-0.205930426
2008	38	16.67	1.67	12.54	1.01	536.0421053	45.74489572	36440	15.47883907	0.363555913
2008	39	3.33	-1.11	2.11	0.06	103.8526316	123.2830467	36577	17.86914497	2.950844996
2008	40	2.22	-2.22	1	0.78	96.6877193	138.0326833	36716	17.21415801	1.803412398
2008	41	4.44	-1.67	2.76	0.21	143.4385965	181.0377947	36857	17.31340905	1.298377309
2008	42	-1.11	-16.67	-5.39	0	170.5473684	361.1028676	36999	17.63332167	0.731339896
2008	43	-8.89	-16.67	-11.03	1.91	68.41403509	67.61667071	37143	17.72662466	0.190684083
2008	44	-3.33	-11.67	-5.63	0.57	106.2385965	88.37750422	37287	16.46551816	-0.209047239
2008	45	0.56	-7.78	-1.74	0	138.5403509	386.4039751	37433	15.97696039	-0.414534295
2008	46	2.22	-7.78	-0.53	0	173.5438596	48.00670552	37581	15.76562913	-0.612006688
2008	47	2.78	-11.11	-1.04	0	213.5157895	360.9479711	37729	15.35066409	-0.299991402
2008	48	2.22	-10.56	-1.29	0.23	197.9649123	113.6486708	37879	14.90514233	-0.151163561
2008	49	8.89	-0.56	6.29	0.44	257.7403509	149.1559073	38029	15.03938201	0.119887892
2008	50	8.33	-4.44	4.82	0	295.9298246	268.2594484	38181	17.08131787	0.163078025
2008	51	-1.11	-10	-3.56	0	128.9964912	278.4670527	38334	15.31310964	0.098793525
2008	52	-3.89	-12.78	-6.33	0	106.4491228	408.2062515	38487	14.73346483	-0.19727907
2008	53	-2.22	-12.78	-5.13	1.05	132.2526316	81.46348533	38642	15.47603998	-0.515904735
2008	54	-2.78	-5.56	-3.54	0.08	46.58245614	206.2048044	38798	14.75352497	-0.411221415
2008	55	1.67	-8.89	-1.24	0	172.5333333	423.5156852	38954	13.90656711	-0.17214651
2008	56	5	-8.89	1.18	0	247.7824561	333.055432	39111	14.24199134	-0.35685733
2008	57	2.78	-5	0.64	0.79	153.2701754	48.759836	39269	14.93255008	-0.24401498
2008	58	1.67	-3.33	0.29	0.01	102.5754386	224.413843	39428	16.68279749	-0.37769163
2008	59	-2.22	-11.67	-4.82	0	124.0421053	367.6338697	39587	16.66996833	-0.309315605
2008	60	1.67	-12.22	-2.15	1.565	197.9789474	241.4387501	39747	15.84808564	-0.629861695
2008	61	1.67	-5.56	-0.32	0	135.3192982	267.2369008	39907	15.22015654	-0.51580583
2008	62	4.44	-5.56	1.69	0	200.9473684	350.9771139	40068	14.17807881	-0.388471495
2008	63	15.56	1.67	11.74	2.165	483.3684211	414.2868009	40230	13.86003224	-0.22715855
2008	64	7.78	1.67	6.1	3.805	176.9894737	20.58868093	40392	14.08419267	-0.322147545
2008	65	4.44	-2.78	2.46	0	162.1754386	93.01013439	40555	14.49647525	0.17939676
2008	66	7.78	-2.78	4.88	1.01	257.2491228	421.6082568	40718	14.46778458	1.461668375
2008	67	7.22	-1.11	4.93	2.03	213.8035088	111.9551392	40882	16.16939781	1.050895585
2008	68	3.33	-7.22	0.43	0	192.8140351	38.96711007	41046	17.28308558	1.8456395
2008	69	0	-6.67	-1.83	0	114.4140351	427.5723125	41210	16.07411213	1.53105751
2008	70	6.11	-3.89	3.36	0	223.8807018	307.5047976	41375	15.78125738	1.44874571
2008	71	6.11	1.11	4.74	0.01	136.2807018	266.7002889	41540	15.19018295	1.79295858
2008	72	4.44	-3.33	2.31	0	170.8210526	151.646709	41705	14.79667761	1.7706683
2008	73	13.33	-3.33	8.75	0.015	456.6035088	411.4743253	41870	14.5219003	2.6601301
2008	74	15	3.89	11.94	0.335	414.0701754	323.0455086	42036	14.34555766	3.382382825
2008	75	10	1.11	7.56	0	265.5368421	247.5309227	42202	15.0901155	4.31498916
2008	76	5.56	-3.89	2.96	0	208.5403509	163.6050793	42368	16.61247036	4.24478452
2008	77	7.78	-3.89	4.57	0.1	272.2807018	462.9329948	42534	15.83257402	4.17827718
2008	78	5.56	2.22	4.64	1.52	93.68421053	53.51101848	42701	15.38413654	3.475303505
2008	79	12.78	1.67	9.72	0.21	362.0140351	76.81797187	42867	14.8145218	4.253823395
2008	80	3.89	-2.78	2.06	0	147.677193	336.8751888	43033	14.4062046	4.20934939
2008	81	6.11	-2.78	3.67	1.19	207.922807	468.9779398	43200	14.22951207	3.980307205
2008	82	5.56	-6.11	2.35	0	235.8736842	285.277683	43366	14.00955028	3.231957935
2008	83	6.11	-5.56	2.9	0	244.554386	510.7787885	43533	13.65383265	3.196977855
2008	84	5.56	-4.44	2.81	0	216	376.0483535	43699	13.42314101	2.331098905
2008	85	9.44	-3.89	5.78	0	324.4350877	479.0154337	43865	15.04742938	2.85526708
2008	86	12.22	1.67	9.32	0.125	339.4175439	323.6223883	44032	14.8145218	4.08044401
2008	87	6.67	2.22	5.44	0.615	128.1684211	57.97117517	44198	14.4062046	3.9195326
2008	88	7.22	-2.78	4.47	0	240.3929825	70.15533215	44363	14.22951207	4.77307703
2008	89	7.22	-4.44	4.01	0	262.7508772	531.2154326	44529	14.00955028	4.23726651
2008	90	10	-4.44	6.03	0	348.8912281	497.9753216	44695	13.65383265	4.173990095
2008	91	13.33	4.44	10.89	0.155	325.3473684	225.2769728	44860	13.42314101	4.809537
2008	92	21.11	1.11	15.61	0.005	779.5157895	172.8890394	45025	13.29799837	6.45443466
2008	93	8.33	-2.78	5.28	0	274.5263158	466.8634875	45190	14.90418614	6.141611625
2008	94	9.44	-2.22	6.24	0.9	302.6736842	317.4336773	45354	16.08213778	5.02175
2008	95	11.67	3.33	9.38	0.19	281.5789474	112.3247726	45518	16.32424304	5.6682
2008	96	12.22	4.44	10.08	0	277.5157895	277.5338981	45681	15.92879496	7.10075
2008	97	15	4.44	12.1	0	401.4596491	405.2141564	45845	15.62367405	7.42335
2008	98	8.33	5.56	7.57	0	94.65263158	126.1629535	46007	15.45553749	6.8692
2008	99	14.44	6.11	12.15	0	332.6807018	261.7510234	46169	15.41855314	7.7144
2008	100	16.11	6.11	13.36	0	414.5754386	256.6507954	46331	15.36819752	8.8719
2008	101	20.56	6.67	16.74	0.74	649.7052632	479.4604878	46492	15.89479781	10.19095
2008	102	20	11.67	17.71	0.19	459.0105263	143.7465115	46653	16.68697419	10.9265
2008	103	18.33	3.89	14.36	0.225	581.7052632	457.5626642	46813	16.17858159	11.57935
2008	104	8.33	0.56	6.19	0.015	218.6315789	169.5090905	46972	15.92851047	8.7401
2008	105	10.56	-2.22	7.04	0	340.6947368	401.2751692	47131	15.67986182	7.59235
2008	106	15	0	10.88	0	484.5333333	561.5878957	47289	15.45596423	7.94165
2008	107	20	2.22	15.11	0	701.6982456	552.2627197	47446	15.29166836	8.8012
2008	108	26.11	7.22	20.92	0	1022.021053	554.4629847	47602	15.19977647	10.06395
2008	109	28.33	10.56	23.44	0	1130.484211	537.8415763	47758	14.97545214	11.82375
2008	110	27.22	12.22	23.1	3.12	984.1192982	416.5839038	47912	16.56748628	12.3466
2008	111	15.56	12.78	14.79	0.24	144.8140351	114.7453709	48066	16.8579557	11.96155
2008	112	21.11	11.67	18.51	0	532.8070175	275.9571123	48219	16.4268035	12.90025
2008	113	22.22	10	18.86	0	666.6666667	413.340583	48370	16.1010567	13.34245
2008	114	23.89	10.56	20.22	0	768.9403509	420.1529441	48521	15.85582199	13.2891
2008	115	22.22	11.11	19.17	0	629.8245614	519.813544	48671	15.50233692	13.44345
2008	116	25	11.11	21.18	2.11	836.3719298	386.4334788	48819	16.24074375	13.30905
2008	117	27.22	10.56	22.64	0.43	1034.203509	392.209431	48966	17.08839667	14.7437
2008	118	19.44	7.22	16.08	2.13	568.5824561	410.8230982	49112	17.56691729	14.65545
2008	119	11.11	5	9.43	0	217.0666667	85.5561443	49257	16.71841089	11.5407
2008	120	13.89	2.78	10.83	0	387.2912281	439.6441772	49401	16.11144076	11.30595
2008	121	12.22	3.33	9.78	0	304.245614	404.569364	49543	15.73064418	9.6434
2008	122	15	3.89	11.94	0	414.0701754	256.0311173	49683	15.69223735	9.24785
2008	123	23.33	9.44	19.51	0.66	761.6350877	312.3472894	49823	16.21030278	11.3079
2008	124	19.44	10	16.85	0.82	484.7017544	286.4218775	49960	17.19394432	13.06775
2008	125	16.67	2.78	12.85	0	516.7719298	382.8252355	50096	16.48711644	12.4557
2008	126	20.56	5.56	16.43	0	674.7789474	539.717107	50231	16.07004674	12.18575
2008	127	22.78	8.33	18.81	0	752.9473684	415.900959	50363	15.71328998	12.5102
2008	128	26.11	12.78	22.44	0.21	870.1122807	487.7954253	50495	15.3149757	12.9852
2008	129	21.11	6.67	17.14	0.99	684.2807018	207.1066688	50624	16.22281377	13.98776864
2008	130	12.22	7.78	11	0	179.5649123	103.0653977	50751	17.03011786	12.43538679
2008	131	18.33	6.67	15.12	0.05	518.9263158	380.0835348	50877	15.73273983	12.16331852
2008	132	16.11	1.11	11.99	2.35	518.3789474	223.787451	51000	14.87353594	10.68867365
2008	133	10	2.22	7.86	0	242.4	136.5087242	51122	14.42999687	9.653329626
2008	134	22.22	7.22	18.1	0.015	743.0105263	573.336625	51241	14.29552394	10.71415934
2008	135	21.67	10	18.46	0.115	628.645614	286.9728961	51358	15.49796619	11.47555233
2008	136	22.78	8.89	18.96	1.31	738.0280702	412.6879141	51473	16.53059699	12.82613437
2008	137	11.11	5.56	9.58	0.02	201.5017544	64.68117319	51586	15.23333558	11.78823551
2008	138	18.89	6.67	15.53	0.61	550.5192982	215.1321547	51697	14.61555318	11.0772681
2008	139	15.56	4.44	12.5	0.05	428.0421053	236.0624843	51805	14.42999687	11.02428227
2008	140	12.78	4.44	10.49	0.98	301.1508772	337.4939703	51910	14.29552394	10.41360947
2008	141	12.78	6.11	10.94	0.47	256.322807	149.0528896	52014	15.49796619	9.769319611
2008	142	15	6.11	12.56	0.12	359.3473684	291.2318379	52114	16.72623451	9.776109812
2008	143	13.33	6.67	11.5	0	264.9403509	377.579158	52212	16.37559439	10.4874955
2008	144	18.89	6.11	15.38	0	564.2736842	488.9290166	52308	16.03576509	10.64493505
2008	145	21.67	6.11	17.39	0	731.9578947	530.3457634	52400	15.64316196	11.70602865
2008	146	23.89	9.44	19.92	0	801.9157895	583.9905125	52490	15.31158301	12.32514185
2008	147	29.44	13.89	25.17	0	1131.242105	490.009624	52577	15.02097135	13.68599865
2008	148	27.22	7.22	21.72	0	1109.866667	328.5980403	52662	14.35383052	15.7458
2008	149	19.44	6.11	15.78	0	596.3157895	585.2339268	52743	13.7381833	13.6456541
2008	150	24.44	8.33	20.01	0	871.8105263	570.3446546	52821	13.21257874	12.8332277
2008	151	26.11	12.22	22.29	0.22	889.5859649	459.8854545	52896	13.12481203	13.24891495
2008	152	27.22	17.78	24.62	0	745.4877193	352.9051143	52969	12.80532412	16.19585
2008	153	25.56	10	21.28	0	913.1789474	486.2564576	53038	11.80902256	15.83315
2008	154	25	13.33	21.79	0	757.5298246	542.0388867	53103	11.15909368	14.7199
2008	155	27.78	15	24.26	2.01	930.4982456	379.1178573	53166	14.22765698	14.92795
2008	156	21.11	17.78	20.19	0.15	232.4	90.04834194	53225	16.57715911	15.8703
2008	157	28.33	19.44	25.89	0	758.1894737	345.9921548	53281	15.94586466	17.69855
2008	158	32.78	20.56	29.42	0	1181.515789	525.1338733	53334	15.09195286	19.75805
2008	159	33.33	23.33	30.58	0	1067.480702	518.1060825	53383	14.01400122	20.3471
2008	160	32.22	22.78	29.62	0	969.2842105	429.2805031	53429	12.61585044	20.88285
2008	161	33.89	21.67	30.53	1.09	1251.333333	544.4346842	53471	11.53889453	21.20935
2008	162	32.22	15.56	27.64	0.11	1357.122807	410.0632218	53510	11.80688884	20.4175
2008	163	28.33	16.11	24.97	0	934.1684211	575.5212714	53546	10.84429994	19.22775
2008	164	30.56	17.78	27.04	0.04	1079.873684	545.3852399	53577	9.865210323	19.02045
2008	165	31.67	19.44	28.31	0.065	1115.017544	437.034623	53606	9.245437919	19.39675
2008	166	25	15.56	22.4	0.005	661.0736842	181.2395301	53630	8.628652713	19.5199
2008	167	27.22	16.67	24.32	0.68	803.0315789	548.206464	53651	8.497216013	19.1311
2008	168	26.67	13.89	23.15	0.82	875.8596491	355.7539921	53669	12.18228002	17.9407
2008	169	19.44	13.33	17.76	0.14	352.6877193	299.6079692	53682	10.66478358	16.1749
2008	170	18.89	8.89	16.14	0	487.4385965	230.6295793	53693	9.712009754	15.14865
2008	171	20	11.11	17.56	0	480.1614035	342.9473361	53699	8.975878886	14.20735
2008	172	26.11	13.33	22.6	0	849.5789474	471.4200588	53702	8.237898801	15.6237
2008	173	28.33	15	24.67	1.01	982.3789474	515.138638	53701	10.60333266	16.8744
2008	174	26.67	15.56	23.61	0.03	805.2491228	539.7242811	53696	9.512436497	18.0169
2008	175	25.56	12.78	22.04	0.1	823.9719298	482.1374236	53688	8.51622028	17.7385
2008	176	25	13.33	21.79	0	757.5298246	423.956815	53676	9.799136354	16.69244455
2008	177	27.22	15	23.86	0.15	879.6982456	441.7024282	53661	10.84879496	16.53507709
2008	178	28.33	18.33	25.58	1.2	822.3719298	305.0543614	53641	9.799136354	19.77382394
2008	179	26.67	19.44	24.68	0	595.7403509	276.8843134	53619	8.656390977	18.86728082
2008	180	28.89	18.89	26.14	0.04	847.0035088	350.0097029	53592	8.127514733	20.05335
2008	181	27.22	17.22	24.47	0.14	774.9263158	308.2490012	53562	7.388396667	19.3376
2008	182	25.56	15.56	22.81	0	708.1122807	417.4633376	53529	6.651412315	18.9632
2008	183	22.78	13.33	20.18	0	584.9122807	300.6619244	53491	5.977301362	17.7518
2008	184	27.22	15	23.86	0.02	879.6982456	560.1282857	53451	5.407315586	17.6469
2008	185	25.56	18.33	23.57	0.02	561.3684211	231.8553748	53407	5.127372485	17.48035
2008	186	23.89	17.78	22.21	2.12	450.7157895	199.8697127	53359	4.925523268	17.9903
2008	187	24.44	16.11	22.15	0	587.5438596	256.6897839	53308	5.210871774	18.2758
2008	188	27.78	17.22	24.88	0.01	827.3754386	370.6546738	53254	5.511014022	19.03245
2008	189	27.22	18.89	24.93	0	682.4421053	297.1433942	53196	5.621113595	19.8773
2008	190	30.56	18.89	27.35	0.44	1022.140351	501.4656629	53135	6.387400935	20.706
2008	191	26.67	16.11	23.76	0	779.2982456	190.4580091	53071	6.72367405	20.2408
2008	192	26.67	15	23.46	0	829.9649123	565.0716361	53004	5.92139809	19.67715
2008	193	28.33	16.67	25.12	0	908.1964912	471.9697353	52933	5.401910181	18.99085
2008	194	31.11	19.44	27.9	0.33	1052.449123	520.0338063	52860	5.08825442	20.29945
2008	195	27.78	17.22	24.88	0	827.3754386	355.3178675	52783	4.724527535	21.0425
2008	196	26.67	15.56	23.61	0	805.2491228	522.2584862	52703	4.194086568	19.9782
2008	197	28.33	16.11	24.97	0	934.1684211	560.3976055	52620	3.845722414	18.9195
2008	198	31.11	17.22	27.29	0	1166.105263	557.7513277	52535	3.65112782	19.58915
2008	199	31.67	20	28.46	0.12	1083.508772	438.8623918	52446	3.504470636	20.62975
2008	200	32.22	21.11	29.17	0	1081.25614	413.3001242	52355	3.35397277	21.18095
2008	201	31.67	20	28.46	0.385	1083.508772	517.5354854	52261	3.102336923	21.55435
2008	202	32.22	18.89	28.56	0.005	1208.421053	409.5625719	52164	3.091952855	20.95795
2008	203	29.44	18.33	26.39	0.4	934.6666667	405.7065783	52065	3.715565942	21.16395
2008	204	28.89	19.44	26.29	1.29	814.6315789	414.7642553	51963	7.932635643	21.0514
2008	205	23.33	15	21.04	1.04	552.8491228	134.2814223	51858	11.84316196	19.43055
2008	206	25	14.44	22.1	0	711.6350877	347.1107418	51751	9.215992684	18.31515
2008	207	27.78	15.56	24.42	0	906.5894737	534.5950002	51642	8.049705344	18.77596619
2008	208	28.33	18.33	25.58	0	822.3719298	433.7922375	51530	7.548282869	19.35544576
2008	209	27.22	15.56	24.01	0	855.3824561	487.9174592	51417	6.725665515	19.9019
2008	210	28.89	17.22	25.68	0	935.6210526	493.0210721	51300	5.585124975	19.23745
2008	211	30	17.78	26.64	0.52	1021.207018	475.7485444	51182	4.627372485	20.05945
2008	212	29.44	18.33	26.39	0	934.6666667	331.2877091	51062	4.416846169	19.7367
2008	213	28.89	17.78	25.83	0	907.4596491	465.3030487	50939	4.026661248	20.8136
2008	214	28.33	18.89	25.74	0.01	791.0035088	488.1866181	50815	3.555821987	20.1486
2008	215	27.78	16.11	24.57	0	881.4526316	403.8918087	50688	3.013574477	20.2156
2008	216	25.56	15	22.65	0	733.6140351	401.7587619	50560	2.633489128	19.1711
2008	217	27.78	16.67	24.72	0.1	855.0596491	479.2455879	50430	2.453119285	19.2206
2008	218	24.44	19.44	23.07	0.39	394.4982456	146.635572	50298	2.470757976	19.4773
2008	219	28.89	16.67	25.53	0.05	962.4561404	530.552428	50164	2.347144889	20.61315
2008	220	26.67	14.44	23.31	0.1	853.4947368	348.5250954	50029	2.149989839	18.8205
2008	221	23.89	12.22	20.68	0	712.2807018	435.3575924	49892	2.001341191	17.9118
2008	222	24.44	13.89	21.54	0.02	690.2175439	512.9065603	49754	1.877301362	17.38265
2008	223	25	14.44	22.1	0.04	711.6350877	470.5948724	49614	1.702052428	17.5137
2008	224	21.67	14.44	19.68	0	453.9789474	312.5321596	49472	1.639179029	17.00075
2008	225	24.44	12.78	21.24	0	734.6105263	409.6248125	49330	1.534911603	17.6683
2008	226	27.78	13.89	23.96	0.55	974.7929825	429.6788924	49186	1.597358261	17.9102
2008	227	25.56	15.56	22.81	0	708.1122807	329.5958401	49040	1.660089413	18.0322
2008	228	25.56	12.78	22.04	0	823.9719298	440.5088354	48894	1.545864662	17.7728
2008	229	25.56	14.44	22.5	0	757.9157895	485.5606204	48746	1.482706767	17.27935
2008	230	27.22	15	23.86	0	879.6982456	479.3240941	48597	1.299918716	17.6468
2008	231	29.44	17.22	26.08	0	991.4596491	519.4066383	48446	1.868382443	18.18035
2008	232	26.11	10	21.68	0	957.4807018	374.7148773	48295	1.751753709	18.58929042
2008	233	25.56	11.11	21.58	0	880.4421053	558.3377853	48143	1.576810608	17.24955165
2008	234	29.44	12.78	24.86	0	1168.575439	536.697562	47990	1.460181874	17.2958071
2008	235	30	16.11	26.18	0	1099.087719	528.263379	47836	1.307164975	18.75732132
2008	236	27.78	17.78	25.03	0	798.3508772	487.5682976	47681	1.223192286	18.75765
2008	237	31.11	18.89	27.75	0.13	1082.968421	468.8788006	47525	1.635124975	18.96575
2008	238	27.78	12.78	23.65	0	1014.603509	525.5087823	47368	2.801412315	19.33638419
2008	239	26.11	13.33	22.6	0.003895833	849.5789474	521.6431053	47210	4.550843325	17.5128489
2008	240	26.67	13.89	23.15	0.634125	875.8596491	430.7492561	47052	6.300274334	17.41485
2008	241	17.78	15.56	17.17	0.228345833	133.9719298	84.78493592	46893	6.45511075	16.6106
2008	242	21.11	16.67	19.89	0	298.2175439	151.1140497	46734	6.041028246	17.3095
2008	243	27.22	12.22	23.1	0	984.1192982	303.0324007	46573	5.526376753	18.69755
2008	244	27.22	13.33	23.4	0	945.6491228	536.7217159	46413	4.970900224	17.6182
2008	245	26.67	12.78	22.85	0	917.2561404	540.0980303	46251	4.411725259	17.28785
2008	246	29.44	14.44	25.32	0	1110.919298	528.1481265	46089	3.941028246	17.4063
2008	247	30.56	15.56	26.43	0	1179.347368	507.259673	45927	3.449278602	18.23675
2008	248	31.67	16.11	27.39	0	1274.596491	481.1607814	45764	2.993517578	18.8439
2008	249	31.11	20.56	28.21	0.05584375	986.9403509	451.3041667	45600	2.578012599	19.24425
2008	250	22.78	12.78	20.03	0.001297917	607.6070175	102.935339	45437	2.334200366	19.5216941
2008	251	25	13.89	21.94	0.002595833	735.1508772	420.2074571	45272	2.004186141	18.89395845
2008	252	26.67	13.89	23.15	0.62999375	875.8596491	477.720094	45108	1.785267222	18.32317355
2008	253	20	9.44	17.1	0.0122	537.7473684	103.7893554	44943	1.966632798	17.86586435
2008	254	21.11	10.56	18.21	0.00726875	572.877193	485.4580151	44778	2.16193863	16.7763486
2008	255	20.56	13.33	18.57	0.68049375	426.7087719	303.217672	44613	6.055252997	16.3194652
2008	256	21.11	18.33	20.35	0.05988125	197.4105263	84.06061151	44447	11.45240805	17.4625253
2008	257	24.44	19.44	23.07	0.0077875	394.4982456	200.9966803	44281	11.39109937	18.8934262
2008	258	29.44	18.89	26.54	0	904.1824561	374.1760172	44115	10.91528145	20.48538595
2008	259	22.78	11.67	19.72	0	649.7964912	298.3259232	43949	10.23405812	19.8472182
2008	260	20	9.44	17.1	0.002595833	537.7473684	226.0229313	43783	9.838610039	17.0993179
2008	261	23.33	10	19.67	0	745.277193	475.0160029	43617	9.509591546	16.496598
2008	262	21.11	7.78	17.44	0	656.7087719	442.9891369	43450	9.050701077	16.6505247
2008	263	20.56	8.33	17.19	0	606.2245614	419.7895989	43284	8.783133509	15.574741
2008	264	21.11	10	18.06	0.003895833	591.4526316	409.7163764	43117	8.575594391	15.3267
2008	265	24.44	10	20.47	0.002595833	827.4035088	407.9027962	42951	8.355821987	15.31365
2008	266	19.44	7.78	16.24	0	553.522807	190.3744858	42784	8.078439342	15.3428
2008	267	21.11	8.89	17.75	0	625.8315789	410.743606	42618	7.783844747	14.7214
2008	268	23.33	9.44	19.51	0	761.6350877	461.1823942	42452	7.471611461	14.64315
2008	269	20.56	11.11	17.96	0.00519375	516.3438596	365.7231471	42286	7.227941475	14.7417
2008	270	17.78	12.22	16.25	0.307825	297.5859649	85.06794872	42120	7.429221703	14.98
2008	271	21.11	16.67	19.89	0.688397917	298.2175439	146.5197597	41954	10.3522658	16.6565
2008	272	22.22	13.89	19.93	0.0077875	519.9087719	216.5280942	41788	11.72196708	17.7887
2008	273	20.56	10	17.65	0	555.0736842	270.7031689	41623	11.44572241	16.87245
2008	274	18.33	10	16.04	0.233795833	417.4245614	189.9629987	41458	11.70973379	14.72015
2008	275	15.56	8.33	13.57	0	320.5614035	173.7329329	41293	11.91428571	13.9001
2008	276	12.78	8.33	11.56	0	185.5578947	241.5923071	41129	11.6663483	12.65225
2008	277	15	5	12.25	0.103904167	388.154386	164.1662924	40964	11.95653322	11.9979
2008	278	14.44	6.11	12.15	0	332.6807018	231.4760913	40801	12.0891079	11.2182
2008	279	16.67	7.78	14.22	0.002595833	396.3438596	416.6164825	40637	11.8750254	12.1258
2008	280	16.67	2.22	12.69	0.0181875	526.7087719	375.476627	40474	11.51983337	11.93035
2008	281	16.67	2.78	12.85	0.01688125	516.7719298	432.2290881	40312	11.43704532	10.4685
2008	282	16.67	7.22	14.07	0.035064583	412.7508772	218.5872478	40150	11.76108515	11.0458
2008	283	21.67	8.89	18.15	0	662.4070175	389.0816224	39989	11.64045926	14.1025
2008	284	21.11	6.11	16.99	0	696.8982456	422.8133725	39828	11.42794148	13.1402
2008	285	21.11	5.56	16.83	0	708.7719298	416.9137066	39667	11.31385897	12.3683
2008	286	22.78	7.78	18.65	0	767.0315789	407.251139	39508	11.21001829	12.72915
2008	287	25	8.89	20.57	0	899.6140351	307.6376782	39349	11.14614916	12.97375
2008	288	26.11	8.89	21.37	0	985.8385965	340.0631778	39191	11.21926438	13.6969
2008	289	23.33	12.78	20.43	0	649.0245614	314.6322343	39033	11.15425726	15.47455
2008	290	20	8.89	16.94	0	555.0877193	96.48724149	38876	10.79693152	15.17105
2008	291	12.22	2.78	9.62	0	316.6035088	154.1217459	38720	10.4435887	11.8067
2008	292	10.56	-1.11	7.35	0	324.5192982	289.662077	38565	10.22822597	9.71505
2008	293	11.67	-1.11	8.15	0.003895833	365.1789474	411.4896254	38411	10.05112782	8.8219
2008	294	16.11	-0.56	11.53	0.002595833	541.9649123	367.0695802	38258	9.990957123	8.32075
2008	295	10.56	2.78	8.42	0	250.8	217.2820028	38106	9.910445031	8.8508
2008	296	9.44	0.56	7	0	256.554386	281.3326044	37955	9.752123552	8.6595
2008	297	12.22	0.56	9.01	0	359.8245614	390.2720612	37804	9.635765088	7.9614
2008	298	13.89	6.67	11.9	1.540483333	290.6175439	167.6808392	37655	12.27886608	8.20045
2008	299	14.44	3.33	11.39	0.005191667	400.4912281	43.15066521	37507	12.8181264	10.13145
2008	300	16.67	3.89	13.15	0	494.9824561	364.9315329	37361	12.55041658	9.15925
2008	301	8.89	3.89	7.51	0.007791667	161.8526316	251.9830713	37215	12.26108515	9.41425
2008	302	6.67	1.11	5.14	0.18833125	153.4105263	98.94246176	37071	12.52267832	8.0013
2008	303	4.44	-0.56	3.07	0.001297917	122.6666667	103.6515923	36928	13.03434261	5.91905
2008	304	8.89	-0.56	6.29	0	257.7403509	369.0951695	36787	12.76293436	6.11765
2008	305	18.33	3.33	14.21	0	592.1684211	351.7090076	36647	12.72481203	6.9241
2008	306	17.78	4.44	14.11	0	540.7368421	231.4742118	36509	12.53861004	9.2709
2008	307	9.44	3.89	7.92	0	182.1403509	187.2377103	36372	12.42267832	8.784
2008	308	14.44	7.22	12.46	0	300.322807	258.375031	36237	12.35809795	9.2251
2008	309	13.89	8.89	12.51	0.01	218.3298246	100.4017395	36103	12.45511075	9.91035
2008	310	18.33	8.89	15.74	0	454.7368421	257.0485669	35971	12.45283479	11.10225
2008	311	20	10	17.25	0	519.4947368	242.4719176	35841	12.47701687	12.03555
2008	312	21.67	9.44	18.31	0.24	645.9719298	308.8003248	35713	12.73092867	12.4942
2008	313	12.78	4.44	10.49	0	301.1508772	134.4137582	35586	12.60546637	11.18095
2008	314	8.33	1.67	6.5	0	195.6070175	146.6516271	35462	12.37303394	8.90545
2008	315	3.89	0.56	2.97	0	84.36491228	155.6687512	35339	12.21841089	7.33
2008	316	4.44	0	3.22	0	111.4736842	123.6229308	35219	12.14572241	6.5888
2008	317	10	0.56	7.4	1.51	276.2175439	228.2574359	35100	13.58711644	7.1132
2008	318	8.89	5.56	7.97	0	115.0035088	38.74857078	34984	13.6893924	7.4553
2008	319	11.67	8.33	10.75	0.59	135.8245614	94.88379696	34870	14.27474091	8.9628
2008	320	13.33	2.22	10.28	0.05	374.4701754	41.89573923	34759	13.83775655	9.84665
2008	321	5	0.56	3.78	0.04	115.4596491	114.7539612	34649	13.54401544	7.0304
2008	322	2.78	-3.89	0.94	0	137.4175439	119.3574779	34542	13.32239382	5.45965
2008	323	-0.56	-6.67	-2.24	0	103.4105263	215.6341251	34438	13.07317618	3.51725
2008	324	0	-5.56	-1.53	0	99.83157895	222.922472	34336	13.01855314	2.5636
2008	325	3.89	-2.78	2.06	0.15	147.677193	126.9326752	34237	12.99053038	3.3882
2008	326	-1.11	-6.67	-2.64	0	92.70175439	141.2762742	34140	12.98811217	3.0426
2008	327	-1.67	-6.11	-2.89	0	74.85614035	179.2016683	34046	13.06720179	2.1493
2008	328	2.78	-6.67	0.18	0.68	173.9508772	289.8008482	33954	12.8549685	1.91465
2008	329	2.22	-5.56	0.08	0.94	147.7754386	81.5214079	33866	13.10162569	1.5204
2008	330	3.89	0	2.82	0.05	96.26666667	162.728952	33780	13.62125584	2.1598
2008	331	1.67	0	1.21	0	39.15789474	90.9198445	33697	14.02395855	2.33665
2008	332	5.56	-2.22	3.42	0	183.4526316	263.3917544	33618	13.81926438	2.5579
2008	333	5.56	-1.11	3.72	0	164.3087719	229.6326884	33541	15.04742938	2.2084
2008	334	5.56	-3.33	3.11	0.73	200.645614	268.2057549	33467	14.58091445	2.73103633
2008	335	3.89	0	2.82	0.41	96.26666667	25.89807468	33397	14.34765698	2.344013925
2008	336	6.11	0	4.43	0	159.4596491	120.3406043	33329	14.11439951	3.269932985
2008	337	2.22	-5	0.24	0	140.3578947	121.3659402	33265	13.76451331	2.915501165
2008	338	6.67	-4.44	3.61	0	246.7719298	271.7797253	33204	13.53125584	2.13444621
2008	339	7.78	-3.89	4.57	0	272.2807018	29.142883	33146	13.18136964	3.150860905
2008	340	-1.67	-8.33	-3.5	0	102.2736842	141.4201015	33092	12.82737249	0.94325
2008	341	-1.67	-8.33	-3.5	0.03	102.2736842	134.0420084	33041	12.77132697	0.5483
2008	342	-3.89	-9.44	-5.42	0	76.76491228	144.8592732	32993	12.57317618	0.28805
2008	343	-1.11	-8.89	-3.25	0	118.2526316	78.60147501	32949	12.48839667	0.3242
2008	344	11.67	-2.22	7.85	1.47	380.6105263	176.9446656	32909	14.4148547	1.9335
2008	345	12.22	-1.11	8.56	1.365	386.2526316	30.39005841	32872	14.90532412	2.8442
2008	346	1.67	-1.11	0.9	1.145	62.37894737	20.18929289	32838	14.75695997	2.6497
2008	347	1.67	-6.11	-0.47	0	142.4561404	76.9372714	32808	14.0780126	1.6741
2008	348	-0.56	-6.11	-2.08	0	96.21052632	241.9216033	32782	13.89664702	1.17165
2008	349	9.44	-1.67	6.39	0.265	294.477193	251.2587381	32759	13.9777281	2.1757
2008	350	13.89	-1.67	9.61	0.315	459.7824561	70.74098962	32740	14.01172526	3.0326
2008	351	1.11	-2.22	0.19	1.07	70.59649123	68.16776678	32724	13.98555172	2.53495
2008	352	3.33	-0.56	2.26	0	92.91929825	40.82190022	32712	14.26435684	2.15715
2008	353	2.22	-0.56	1.46	3.18	64.64561404	88.91077544	32704	14.7465759	2.14395
2008	354	5.56	-4.44	2.81	0.02	216	15.4468944	32699	14.42424304	1.5277
2008	355	-2.78	-5.56	-3.54	0.12	46.58245614	137.640712	32698	14.20845357	0.94725
2008	356	1.67	-15.56	-3.07	0	214.0280702	182.3404789	32701	13.55511075	0.2457
2008	357	-7.78	-14.44	-9.61	0	66.78596491	261.2881035	32707	12.85880919	-0.2073
2008	358	1.11	-11.11	-2.25	3.335	179.6561404	149.4164502	32717	14.79038813	-0.324
2008	359	9.44	-0.56	6.69	0.315	276.5824561	44.81274633	32731	14.90760008	-0.01765
2008	360	0	-5.56	-1.53	0	99.83157895	173.5758649	32749	14.46307661	0.1106
2008	361	2.78	-4.44	0.79	0.36	145.5578947	183.3182179	32770	15.02452754	0.51555
2008	362	9.44	0	6.85	0.01	266.8421053	127.746539	32794	14.66193863	0.95895
2008	363	12.22	0	8.86	0	369.1719298	142.5615136	32822	14.47886608	1.23625
2008	364	6.67	-1.11	4.53	0	196.8912281	258.5131795	32854	14.26264987	1.1972
2008	365	3.89	-1.11	2.51	0.08	118.4	262.1079996	32889	14.05255029	0.77895
2009	1	1.67	-9.44	-1.39	0	264.1864349	155.0455539	32928	13.6235318	0.1808
2009	2	-1.67	-9.44	-3.81	0	252.0662643	277.2813078	32971	13.52196708	0.38265
2009	3	5.56	-5.56	2.5	0	338.4527851	154.4734834	33017	13.5438732	0.1512
2009	4	1.11	-7.78	-1.33	0	169.1340428	250.4367628	33066	13.30134119	0.1299
2009	5	3.89	-7.22	0.83	0.01	266.6382496	130.8097467	33119	13.4866897	0.66405
2009	6	3.89	-3.33	1.9	0.44	227.4430348	186.7836925	33175	13.33647633	0.36665
2009	7	0	-3.33	-0.92	1.83	50.3711006	35.42534754	33234	14.2064621	0.41085
2009	8	2.22	-3.33	0.69	0	165.2672999	35.77024267	33296	14.59451331	0.14615
2009	9	-2.22	-5.56	-3.14	0	139.4944835	142.8110425	33362	13.99963422	-0.14445
2009	10	-2.78	-5.56	-3.54	0.955	49.44759858	211.1762735	33431	13.57687462	-0.04995
2009	11	-0.56	-5.56	-1.93	0.095	108.3172789	52.56209892	33503	13.65866694	0.0175
2009	12	-3.33	-6.11	-4.1	0	119.1433274	124.0813008	33579	13.6522658	-0.03665
2009	13	-0.56	-6.67	-2.24	0	110.799546	187.169623	33657	13.5435887	-0.16455
2009	14	0.56	-12.78	-3.11	0.085	98.79150683	92.89187267	33738	13.38555172	-0.63385
2009	15	-7.78	-13.33	-9.31	0.165	98.60923509	191.2382177	33822	13.22495428	-0.3984
2009	16	-8.89	-17.22	-11.18	0	94.76454865	195.8472972	33909	13.03704532	-0.85925
2009	17	-13.33	-18.89	-14.86	0	68.80729022	272.8107297	33999	12.73149766	-1.0409
2009	18	-6.67	-19.44	-10.18	0.23	44.73166455	213.4915229	34092	12.555253	-0.49965
2009	19	-3.33	-7.78	-4.56	0.04	102.9768209	115.1936116	34187	12.5809998	-0.33075
2009	20	-4.44	-12.22	-6.58	0	118.3555004	198.6965145	34285	12.63946352	-0.34955
2009	21	-3.89	-12.78	-6.33	0	155.8506765	153.4316873	34386	12.61798415	-0.504
2009	22	-4.44	-12.78	-6.74	0	150.5775132	254.0363014	34489	12.53832554	-0.3973
2009	23	4.44	-5.56	1.69	0	233.9671771	303.8885966	34595	13.67488315	-0.22005
2009	24	10.56	-2.78	6.89	0.00445	438.592215	286.1560672	34703	14.8923796	-0.41925
2009	25	-1.11	-12.78	-4.32	0.018333333	108.7026327	191.2816683	34814	13.75340378	-1.3831
2009	26	-7.22	-12.78	-8.75	0.000683333	107.2715216	133.0920804	34926	12.71200975	-1.36175
2009	27	-2.78	-10.56	-4.92	0.009583333	153.6160651	253.7081217	35042	12.57986182	-1.05525
2009	28	-2.78	-6.67	-3.85	1.365966667	67.40931715	137.0974146	35159	12.52751473	-0.79935
2009	29	1.67	-8.33	-1.08	0.008666667	211.3752309	56.87618346	35278	12.59664702	-0.6729
2009	30	-0.56	-8.33	-2.69	0.087966667	154.5088648	275.4467797	35400	12.74984759	-0.61825
2009	31	0	-11.11	-3.06	0.001216667	203.5899768	196.1663711	35523	12.66037391	-0.7296
2009	32	-1.11	-11.67	-4.01	0	164.3049002	324.5517125	35649	12.85667547	-0.5224
2009	33	9.44	-1.11	6.54	0.060466667	152.2796808	331.9759895	35776	14.06577931	-0.3474
2009	34	3.89	-4.44	1.6	0.004133333	147.6905964	70.00790976	35905	14.53875229	-0.45035
2009	35	1.67	-8.89	-1.24	0.09065	176.1774139	253.5008048	36036	14.44486893	-0.575
2009	36	-3.89	-16.11	-7.25	0.001	147.1429927	217.5034422	36169	13.88114204	-1.24475
2009	37	-7.22	-15.56	-9.51	0	139.7014676	362.013222	36303	13.81428571	-1.3302
2009	38	3.33	-8.33	0.12	0	237.8874798	360.4623765	36440	14.39394432	-0.50685
2009	39	12.78	-2.78	8.5	0.000316667	419.5200398	217.6037947	36577	15.10546637	-0.3338
2009	40	10.56	-2.22	7.04	0	386.0580639	216.7615209	36716	14.8208291	-0.21435
2009	41	7.22	-2.22	4.62	0.157616667	200.2813618	341.0010853	36857	14.85084332	0.1734
2009	42	10	2.78	8.01	0.013283333	279.2561642	85.07354253	36999	15.13348913	1.6678
2009	43	16.67	5	13.46	0.499733333	600.4362025	260.6041515	37143	15.26023166	1.62715
2009	44	6.11	1.11	4.74	0.0026	318.3311801	86.93394481	37287	14.76620606	0.91185
2009	45	2.22	-0.56	1.46	0.107133333	167.2721316	72.22969038	37433	14.54273522	0.79895
2009	46	0.56	-5	-0.97	0.005033333	227.6195056	123.0332881	37581	14.46791303	0.84065
2009	47	2.22	-5.56	0.08	1.66667E-05	272.1943102	351.0557396	37729	14.24671815	0.5453
2009	48	0.56	-7.78	-1.74	0	236.7528368	228.1077114	37879	13.99792725	0.394
2009	49	3.33	-7.78	0.28	0.480608333	161.2265878	385.4023245	38029	13.89408657	0.2861
2009	50	4.44	-1.67	2.76	0.280633333	194.6061353	38.35342186	38181	14.86037391	0.14865
2009	51	2.22	-8.89	-0.83	0.008408333	251.1921475	190.9096885	38334	14.23761431	-0.23105
2009	52	-3.89	-8.89	-5.26	0	223.1231013	225.5153169	38487	13.88043081	-0.2588
2009	53	3.33	-7.22	0.43	0.093208333	260.7307378	391.3288132	38642	14.24117049	-0.16475
2009	54	0	-6.67	-1.83	0.049475	229.8927661	202.9565957	38798	13.9178419	-0.39515
2009	55	-3.89	-11.11	-5.87	0	188.3726894	209.4387226	38954	13.50560862	-0.6862
2009	56	-0.56	-11.11	-3.46	0	249.314548	429.0285597	39111	13.56990449	-0.2004
2009	57	8.33	-7.22	4.06	0.015366667	428.006074	414.2311747	39269	13.98697419	0.8801
2009	58	12.78	2.78	10.03	0.744733333	279.7922266	197.8326063	39428	14.73363138	1.52285
2009	59	12.78	-3.89	8.19	0.000133333	487.0341169	86.0709829	39587	14.97644788	1.4255
2009	60	1.67	-4.44	-0.01	0	345.0601914	354.4487634	39747	14.6579557	1.31355
2009	61	3.89	-8.33	0.53	3.33333E-05	354.7241505	289.1103315	39907	14.30930705	0.47695
2009	62	-5.56	-13.89	-7.85	0	201.4583111	340.3241739	40068	13.75695997	-0.0263
2009	63	-2.22	-13.89	-5.43	0	249.8397379	454.3288839	40230	13.55013209	-0.23515
2009	64	2.78	-11.11	-1.04	0	353.4684994	460.430506	40392	13.61115627	0.58505
2009	65	11.67	-7.22	6.47	0	543.6752737	439.2025151	40555	13.95994717	3.05665
2009	66	20	8.33	16.79	0.004733333	744.2677937	296.3650474	40718	14.10873806	5.8875
2009	67	21.67	12.78	19.22	0.840566667	457.0879083	174.0303801	40882	14.70845357	7.2846
2009	68	15	6.11	12.56	0.508116667	356.2603444	44.59771963	41046	15.42097135	5.77055
2009	69	10	1.67	7.71	0.06885	242.4558126	118.2215482	41210	14.88427149	4.1149
2009	70	7.22	2.22	5.85	0.024183333	404.9297895	78.0172568	41375	14.81997561	6.0171
2009	71	17.22	-2.78	11.72	3.33333E-05	795.2153365	390.1841358	41540	14.50930705	3.4573
2009	72	2.78	-5	0.64	0	319.2155879	317.3720177	41705	14.26862426	3.59265
2009	73	6.67	-5	3.46	0	326.2932209	466.8058276	41870	14.14728714	4.2946
2009	74	11.11	-1.11	7.75	0	333.8742675	389.5550718	42036	14.10503963	6.2411
2009	75	13.89	2.22	10.68	0.651216667	274.9745386	392.044595	42202	14.26521032	5.90865
2009	76	11.67	3.33	9.38	0.127316667	267.5401823	124.9391758	42368	15.18270677	6.5087
2009	77	12.78	2.78	10.03	0	448.9978894	256.0915503	42534	14.93590734	7.54365
2009	78	22.78	3.89	17.58	0.003683333	1053.709672	434.3761973	42701	14.7723227	7.93725
2009	79	12.78	-2.22	8.65	0.004033333	629.3741589	321.2826183	42867	14.39949197	4.8386
2009	80	6.67	-6.11	3.15	0	449.3988361	337.8049172	43033	14.06734404	3.7937
2009	81	8.33	-6.11	4.36	0	434.1245019	406.4468056	43200	13.96449909	4.4981
2009	82	12.22	-3.33	7.94	0	772.7372812	355.0930683	43366	13.87787035	4.6879
2009	83	7.78	-6.67	3.81	0	602.8603107	528.8867755	43533	13.63178216	4.2393
2009	84	8.89	-6.11	4.76	0.000116667	618.5631465	512.8243438	43699	13.46890876	4.01
2009	85	10	2.22	7.86	1.215633333	109.8442733	258.5353699	43865	14.34984759	4.5426
2009	86	5.56	1.67	4.49	0.001033333	272.2866165	45.54219658	44032	15.2378988	6.54485
2009	87	14.44	2.78	11.24	0.335508333	168.8633258	400.4028463	44198	15.37090022	7.2782
2009	88	12.22	7.22	10.85	0.7059	227.6366565	89.91249465	44363	15.52907946	7.4691
2009	89	10.56	1.11	7.96	0.068941667	343.3438813	145.1713041	44529	15.27374517	5.2706
2009	90	3.89	0	2.82	0	353.6276041	159.5307081	44695	15.04330421	7.061
2009	91	16.11	0.56	11.83	0.710925	256.8713881	507.5134195	44860	15.27744361	6.59755
2009	92	8.89	6.11	8.13	0.019375	314.3319836	105.789628	45025	15.43163991	9.82595
2009	93	18.89	6.67	15.53	1.815816667	278.580352	461.6348971	45190	16.09863849	10.06715
2009	94	15.56	3.33	12.19	0.02295	640.2511348	79.33589099	45354	15.51357448	8.01605
2009	95	8.89	2.22	7.06	0	645.7900798	374.2813173	45518	15.1495631	8.8121
2009	96	18.89	2.78	14.46	0.451816667	490.0568742	525.2196537	45681	15.47118472	8.8786
2009	97	12.22	-1.11	8.56	0.01775	442.7006644	176.3503981	45845	15.19081488	5.34605
2009	98	3.89	-0.56	2.67	0.001783333	422.2031368	243.2642859	46007	14.87616338	5.86485
2009	99	10	-0.56	7.1	0	604.6907822	351.3453616	46169	14.66563707	6.63765
2009	100	15	1.11	11.18	0.184116667	399.0540823	542.5718849	46331	14.51627718	6.42925
2009	101	9.44	3.89	7.92	0.205133333	503.8963151	102.5447389	46492	14.90589311	8.3508
2009	102	12.78	-1.11	8.96	0	778.1438675	444.5026901	46653	14.77317618	6.8843
2009	103	10	-2.78	6.49	0.000966667	547.4747602	572.1304552	46813	14.46791303	6.23085
2009	104	12.78	-1.11	8.96	1.050633333	119.0061886	368.7307332	46972	15.37459866	6.35395
2009	105	7.78	5	7.01	1.37	116.3689887	46.34452908	47131	16.07872384	6.71545
2009	106	7.78	-0.56	5.49	0.000516667	416.5154791	127.4696864	47289	15.52723024	8.263
2009	107	18.33	1.11	13.6	0	1103.46758	564.2099018	47446	15.28540947	9.434
2009	108	21.11	4.44	16.53	0	1361.317267	569.9938238	47602	15.04401544	10.73925
2009	109	23.33	10.56	19.82	0.003033333	1347.874024	541.9207463	47758	14.78427149	11.48475
2009	110	20	5	15.88	0.924775	348.6805386	298.7421523	47912	15.15582199	8.53885
2009	111	7.78	4.44	6.86	0.536141667	175.0739881	73.9256231	48066	15.84998984	9.64815
2009	112	17.22	5	13.86	0.023133333	482.297071	306.7959311	48219	15.43861004	8.0201
2009	113	11.11	2.22	8.67	0.143816667	464.8843314	330.8135415	48370	15.2893924	8.2378
2009	114	12.78	3.33	10.18	0.030466667	606.7031419	394.161765	48521	15.11997561	10.07755
2009	115	23.89	5	18.69	0	1212.598359	434.9593392	48671	15.0549685	13.44845
2009	116	30	13.89	25.57	0	2066.634528	432.1242549	48819	14.78583621	15.4199
2009	117	31.11	15	26.68	0	2221.143246	546.1681371	48966	14.41030278	16.6924
2009	118	32.22	16.67	27.94	0	1939.849546	541.3218154	49112	13.99678927	16.61495
2009	119	29.44	6.67	23.18	0.0001	1225.275917	493.4652334	49257	13.9091648	14.2795
2009	120	19.44	7.22	16.08	0.090716667	512.5185758	402.8471893	49401	13.49906523	12.23525
2009	121	17.22	11.11	15.54	0.344066667	329.7594936	118.7372182	49543	13.9693355	13.7127
2009	122	21.67	11.11	18.76	0.6231	726.5510594	233.1827788	49683	15.88583621	13.7158
2009	123	17.78	8.33	15.18	0.264616667	280.056739	326.1133011	49823	15.39081488	11.42315
2009	124	14.44	8.33	12.76	1.5003	146.8725817	177.5458567	49960	16.18754318	11.3899
2009	125	11.11	9.44	10.65	0.673058333	196.1258044	78.52561083	50096	16.14742938	11.3632
2009	126	13.33	9.44	12.26	0.68195	211.5938044	127.9462881	50231	16.40631985	12.7065
2009	127	18.89	11.11	16.75	0.897275	522.6763283	230.7450906	50363	16.41670392	13.96055
2009	128	21.11	11.11	18.36	0.219233333	366.700773	325.696267	50495	15.77431416	13.47535
2009	129	22.22	12.78	19.62	0.023866667	757.6694342	263.7159845	50624	15.68811217	14.87645
2009	130	24.44	8.89	20.17	0.001066667	1085.621956	307.7087545	50751	15.08882341	12.8034
2009	131	15.56	6.11	12.96	0.02545	368.7424103	261.8315742	50877	14.5438732	10.9141
2009	132	15.56	3.89	12.35	0.008583333	620.5911312	217.8732941	51000	14.22964845	11.06935
2009	133	16.67	4.44	13.31	0	702.4807696	483.4381675	51122	13.84885186	11.7018
2009	134	21.67	7.22	17.69	1.647083333	282.4456908	479.5092992	51241	15.65070108	12.9502
2009	135	20	11.11	17.56	0.424166667	606.2392927	242.6118813	51358	16.06976224	14.9736
2009	136	24.44	11.11	20.78	1.875883333	472.1160068	503.6610067	51473	16.112152	15.93785
2009	137	26.11	7.78	21.07	0.455283333	1279.800578	327.6518823	51586	16.38953465	13.7441
2009	138	15	3.89	11.94	0	799.4811004	499.9752597	51697	15.56336111	11.4096
2009	139	15.56	2.78	12.04	0	674.835982	604.3722614	51805	15.0519813	11.60155
2009	140	22.22	5.56	17.64	0	1029.752062	598.2218455	51910	14.61698842	13.29635
2009	141	28.33	11.11	23.6	0	1433.767087	585.7771946	52014	14.03917903	14.47485
2009	142	29.44	13.89	25.17	0.00005	1243.95323	597.8737192	52114	13.3495631	15.2324
2009	143	28.89	15.56	25.22	0.097833333	798.0652995	447.9868996	52212	12.77829709	16.14895
2009	144	27.78	15.56	24.42	0.219808333	616.3887921	352.2021679	52308	12.58028856	16.5265
2009	145	29.44	16.11	25.78	0.215925	1196.570604	385.4783015	52400	13.54856736	16.9892
2009	146	26.11	12.22	22.29	0.580183333	513.7200429	532.2553629	52490	13.13747206	13.59015
2009	147	12.78	9.44	11.86	0.1383	127.795897	92.49831675	52577	14.2893924	12.8956
2009	148	16.67	10.56	14.99	0.526358333	156.1560378	162.9570088	52662	14.97360293	14.9759
2009	149	22.78	16.67	21.1	1.356208333	345.4430767	231.3654703	52743	16.58868116	15.76385
2009	150	20	12.78	18.01	8.33333E-05	761.5117931	184.9645217	52821	15.53377362	15.0694
2009	151	21.67	10	18.46	0	917.7313413	544.0036298	52896	14.70062995	14.15235
2009	152	21.11	5	16.68	0.002316667	748.3944377	546.4939115	52969	13.91926438	12.93535
2009	153	22.78	8.33	18.81	0.405066667	391.0654887	477.6434632	53038	14.28085755	15.14565
2009	154	23.89	15.56	21.6	1.566466667	162.8550763	323.5355818	53103	16.04572241	14.49125
2009	155	16.67	11.11	15.14	0.04065	320.1857322	54.65613362	53166	16.33078643	13.90945
2009	156	17.78	11.11	15.94	0.610183333	142.9780977	217.9634382	53225	16.53647633	13.53525
2009	157	14.44	12.22	13.83	0.05565	457.0342452	73.79384771	53281	16.13320463	15.60545
2009	158	24.44	12.78	21.24	0	781.4197036	556.5243934	53334	15.33917903	16.229
2009	159	27.22	15.56	24.01	1.172641667	665.3370689	531.5557575	53383	15.2807153	17.18125
2009	160	27.78	18.33	25.18	0.816958333	607.6812536	390.751633	53429	16.91499695	18.16575
2009	161	28.33	16.67	25.12	0.053866667	534.0691892	371.963008	53471	15.87573664	17.57
2009	162	25	17.78	23.01	0.770391667	246.4732931	323.1155111	53510	15.94074375	17.133
2009	163	22.22	17.78	21	0.602158333	384.3381698	157.7462929	53546	16.80688884	17.67305
2009	164	23.89	16.11	21.75	0	696.7668218	266.0981391	53577	16.15340378	17.7293
2009	165	25	11.11	21.18	0.000166667	901.0650168	364.0599933	53606	15.23704532	16.94635
2009	166	25	12.78	21.64	0	948.8202684	561.4360619	53630	14.33718756	16.6397
2009	167	26.67	15	23.46	0	568.0934847	550.5218356	53651	13.56563707	16.0526
2009	168	22.22	15.56	20.39	1.91045	280.2558962	188	53669	15.28427149	15.25145
2009	169	16.67	13.89	15.9	0.416083333	268.2314446	135.68088	53682	16.89494005	15.93805
2009	170	21.67	15.56	19.99	0	551.8582417	214.8344291	53693	16.09181061	16.9544
2009	171	24.44	16.11	22.15	3.7643	322.3490787	340.8653606	53699	17.36606381	17.6274
2009	172	24.44	16.67	22.31	0.360316667	646.0100973	146.2408476	53702	16.91030278	17.59335
2009	173	23.89	15.56	21.6	1.66667E-05	828.393316	276.2871455	53701	15.95895143	18.3034
2009	174	27.22	15.56	24.01	0	1047.297317	400.843899	53696	14.99878074	18.4716
2009	175	27.22	14.44	23.71	0.0001	1122.611537	558.2149084	53688	13.93576509	18.63835
2009	176	29.44	16.11	25.78	0	996.8158224	575.9127916	53676	12.75667547	18.90705
2009	177	30.56	18.89	27.35	0.1578	778.0274218	507.4936546	53661	11.77431416	19.2404532
2009	178	26.67	15.56	23.61	0	921.1815165	403.7957905	53641	10.82395855	18.76792165
2009	179	26.67	15.56	23.61	0.036816667	359.5379371	491.8327086	53619	9.921113595	17.5410854
2009	180	21.11	13.89	19.12	0.392533333	571.5133907	116.2824116	53592	11.00930705	17.88396085
2009	181	26.11	15.56	23.21	1.373766667	317.4763943	487.6221388	53562	12.81983337	17.8429776
2009	182	22.78	13.89	20.33	0.00705	384.479247	309.9693998	53529	14.78697419	17.58398475
2009	183	24.44	15	21.85	1.606516667	292.929466	338.1314988	53491	15.83633408	17.6624384
2009	184	22.22	15.56	20.39	0.00525	508.6422429	242.0939926	53451	15.7322089	17.59755
2009	185	22.22	15	20.24	0	843.0129499	313.2517086	53407	14.81869539	17.7000743
2009	186	23.33	11.11	19.97	0	777.5442578	469.425514	53359	14.31343223	17.03026193
2009	187	23.89	12.22	20.68	0	853.5576772	547.6865574	53308	13.68185328	16.87731868
2009	188	27.22	13.89	23.56	0	1176.476636	523.280993	53254	13.30290591	17.24387566
2009	189	26.11	11.67	22.14	0	808.670287	512.0840101	53196	13.05027433	16.31799692
2009	190	22.78	12.78	20.03	0	719.4379253	403.718453	53135	12.67132697	16.63737855
2009	191	26.11	13.89	22.75	0	704.8211986	450.6709691	53071	12.2923796	17.0398929
2009	192	26.11	16.67	23.51	1.671016667	447.6598914	412.1833069	53004	11.78711644	17.67706404
2009	193	25.56	17.22	23.26	0.033116667	901.6685182	259.7328699	52933	15.24766381	18.25643243
2009	194	25	14.44	22.1	0.000566667	1029.287788	547.7308551	52860	16.65330591	17.15420613
2009	195	24.44	11.11	20.78	0.017533333	973.6450359	547.9027907	52783	15.04619012	16.22294918
2009	196	25	11.11	21.18	0.000616667	832.3341124	585.0799195	52703	17.61292697	16.45055554
2009	197	27.78	13.33	23.81	0.390866667	986.6266601	537.9431965	52620	16.41469539	19.02363452
2009	198	30	18.33	26.79	0.475958333	450.5324709	469.2875036	52535	14.75743223	17.48684621
2009	199	22.78	13.89	20.33	0.791058333	540.2532892	156.5801205	52446	13.41924276	17.00084109
2009	200	20.56	13.33	18.57	0.0065	532.8747459	291.0120141	52355	12.17856907	16.80733206
2009	201	23.89	14.44	21.29	0	675.0930108	439.14927	52261	11.07936907	16.99395202
2009	202	26.11	15.56	23.21	0.097	693.6484257	380.9887854	52164	10.53065328	18.04754103
2009	203	25	15.56	22.4	0.500133333	372.1661505	389.7421492	52065	9.71831644	17.82369202
2009	204	25	16.67	22.71	2.318016667	320.5875517	253.5307815	51963	8.906105913	18.83719471
2009	205	25.56	17.22	23.26	0.1648	532.685326	273.2542134	51858	11.20328486	18.72012958
2009	206	26.11	15	23.06	0.383116667	481.6771529	418.1852331	51751	14.05574802	18.1838629
2009	207	27.78	16.67	24.72	0.291816667	476.1631711	384.4510476	51642	14.75440065	18.85250537
2009	208	26.11	18.33	23.97	0	732.9878967	324.7343295	51530	16.50488486	18.99845702
2009	209	27.78	17.22	24.88	0	788.7211924	458.2545462	51417	15.4932217	19.02823297
2009	210	28.89	18.33	25.99	1.169833333	256.614042	470.5817154	51300	11.44373095	18.6788
2009	211	22.78	18.33	21.56	0.069583333	508.5388685	163.5237584	51182	12.68882341	19.7427
2009	212	27.78	19.44	25.49	1.46685	246.626154	365.4246602	51062	14.01229425	19.42985
2009	213	22.22	16.67	20.69	0.0032	528.009103	122.565441	50939	14.41613493	19.82405
2009	214	27.22	17.22	24.47	0.120166667	503.28073	506.6144249	50815	13.51272099	19.6234
2009	215	25.56	14.44	22.5	0	667.5599216	272.2438644	50688	12.80774233	18.82585
2009	216	25.56	15.56	22.81	0	624.4665166	507.4447785	50560	11.58725869	18.9156
2009	217	28.33	16.67	25.12	0	756.4169314	494.616855	50430	10.53235115	19.26415
2009	218	26.11	12.78	22.44	0	846.0942866	320.9862619	50298	9.302905913	17.57985
2009	219	25	12.22	21.49	0	668.5008427	428.4242485	50164	8.215281447	16.92305
2009	220	24.44	13.89	21.54	0.027166667	634.6702583	421.8924624	50029	7.374029669	17.7314
2009	221	26.11	16.11	23.36	0.42765	442.6475989	406.1789064	49892	7.224100793	19.59875
2009	222	29.44	20	26.85	0.216141667	806.3058002	245.3757889	49754	7.150701077	21.05025
2009	223	32.22	20	28.86	0.231791667	614.5217081	433.2942315	49614	6.914001219	20.4172
2009	224	27.78	18.33	25.18	1.749625	449.6914643	273.9751375	49472	6.637329811	19.65965
2009	225	26.67	16.67	23.92	0.089208333	530.6079843	277.6136834	49330	7.563787848	19.4836
2009	226	26.67	17.78	24.22	0	626.9497425	466.979425	49186	7.479292827	19.73465
2009	227	28.89	17.78	25.83	0	794.0750932	471.8079119	49040	7.131924406	20.2991
2009	228	30.56	19.44	27.5	0	901.5865104	517.4930666	48894	6.72936395	20.1106
2009	229	31.11	20	28.06	0	1105.731535	512.0612768	48746	6.096084861	20.62407613
2009	230	32.78	20.56	29.42	0.431825	611.56991	520.5570508	48597	10.50665328	20.54611811
2009	231	30.56	20.56	27.81	0.015741667	676.9374703	353.0740618	48446	8.163748019	21.0753
2009	232	29.44	20	26.85	0	749.152435	335.0939435	48295	9.170358545	21.13647586
2009	233	29.44	20.56	27	0.485283333	492.655685	360.8208255	48143	8.073937492	21.29540684
2009	234	26.67	18.89	24.53	0.001233333	559.8637232	286.8407377	47990	6.734484861	20.72110562
2009	235	26.67	17.78	24.22	0	846.3101499	300.8905427	47836	9.892379598	20.14366942
2009	236	25.56	14.44	22.5	0	576.5525923	432.6559426	47681	11.13179012	18.72811427
2009	237	25.56	14.44	22.5	0	667.7699726	383.9634929	47525	10.1827796	18.69208006
2009	238	27.22	16.11	24.17	0	897.3468059	508.4194604	47368	9.210021703	19.06445444
2009	239	28.89	17.22	25.68	0.02615	534.4074612	462.4241898	47210	8.086063808	19.28960558
2009	240	19.44	16.67	18.68	0.91275	219.3969411	128.512093	47052	7.366063808	18.53889205
2009	241	20	16.67	19.08	2.108033333	330.555097	72.7311539	46893	6.734484861	19.21579477
2009	242	26.11	14.44	22.9	0	761.1388359	320.4080541	46734	6.229221703	17.59316645
2009	243	22.22	11.11	19.17	0	540.8998917	480.1938247	46573	5.597642756	15.94788898
2009	244	18.89	7.78	15.83	3.33333E-05	474.5543285	398.0785771	46413	3.25909368	14.87805
2009	245	20.56	8.33	17.19	0	529.277754	538.6507319	46251	3.136903068	14.7677
2009	246	23.33	10	19.67	0	586.9153305	521.0623576	46089	3.133346881	15.1667
2009	247	23.89	10.56	20.22	0	627.404906	512.5118558	45927	3.071611461	15.92325
2009	248	25	12.22	21.49	0	667.4029684	508.0795167	45764	2.92879496	16.50525
2009	249	25.56	12.78	22.04	0	723.5662468	474.4047149	45600	2.681995529	16.49555
2009	250	25	13.89	21.94	0.009341667	385.7817956	454.5401105	45437	2.533915871	16.8521
2009	251	20	17.22	19.24	0.003408333	409.4359562	150.4898834	45272	2.41798415	17.21795
2009	252	22.22	16.11	20.54	0.000916667	474.4212481	208.9722001	45108	2.288965657	17.2582
2009	253	22.78	15	20.64	0.013333333	708.5729684	236.9511826	44943	2.104328389	16.5751
2009	254	20	12.78	18.01	2.071841667	218.3804631	440.6224485	44778	1.754115017	14.58835
2009	255	15	12.22	14.24	0.056508333	192.5441047	62.22258086	44613	2.104897379	15.6608
2009	256	19.44	13.89	17.92	0	587.8569736	106.9569825	44447	2.6522658	16.899
2009	257	24.44	15	21.85	0	598.2023368	477.8696958	44281	2.926661248	17.25015
2009	258	23.89	13.89	21.14	0.00035	456.242422	328.4017228	44115	2.934769356	16.7465
2009	259	24.44	11.67	20.93	0	743.9274831	297.3866755	43949	2.85454176	16.145
2009	260	19.44	11.67	17.31	0.010241667	315.1932069	387.5532056	43783	2.665210323	15.28495
2009	261	16.11	13.89	15.5	0.014991667	481.6589997	79.71882523	43617	2.634200366	16.2616
2009	262	23.33	10	19.67	0	668.9773209	431.1204143	43450	2.3636456	14.97505
2009	263	20	5.56	16.03	0	394.0091204	511.4600545	43284	2.003474903	14.0645
2009	264	23.33	6.11	18.6	0	470.319669	419.366955	43117	1.948567364	15.6135
2009	265	23.89	14.44	21.29	0.077166667	413.0755619	425.1073549	42951	1.934911603	16.7677
2009	266	23.33	18.33	21.96	0.454383333	323.0048201	146.6952599	42784	2.034058118	18.005
2009	267	26.11	17.78	23.82	0	550.8505766	287.909733	42618	2.164072343	18.18825
2009	268	22.78	13.33	20.18	0	766.0699265	209.8487704	42452	1.989250152	16.57845
2009	269	20	12.22	17.86	2.91225	393.1857879	423.0745637	42286	1.631355416	14.1453
2009	270	14.44	11.67	13.68	1.75345	97.59836475	66.51524217	42120	1.765779313	14.3687
2009	271	16.67	12.22	15.44	0.7834	392.4936873	144.1699004	41954	2.141597236	13.8875
2009	272	20	11.11	17.56	0.0036	614.0463142	258.0364698	41788	2.544584434	13.03765
2009	273	13.89	10.56	12.97	0.002233333	474.1497003	80.00398818	41623	2.89223735	12.8359
2009	274	13.33	6.67	11.5	0	425.1628331	226.9404458	41458	2.961085145	11.4835
2009	275	12.78	3.89	10.33	0.634591667	132.6601074	243.7642458	41293	2.927941475	10.7612
2009	276	15	5	12.25	0.372508333	279.36355	215.6805174	41129	3.32310506	12.99595
2009	277	18.89	7.78	15.83	0	395.4028318	364.3781369	40964	3.694940053	12.0185
2009	278	15.56	7.78	13.42	0	431.4231722	216.5545207	40801	3.940174761	11.7684
2009	279	15.56	4.44	12.5	0	370.5361453	299.5252848	40637	4.055252997	11.32255
2009	280	17.78	5	14.26	0.267583333	564.702324	375.2800316	40474	4.382849014	12.43275
2009	281	13.33	7.78	11.81	0	466.8655743	216.561148	40312	4.59394432	12.14955
2009	282	18.33	8.33	15.58	1.115225	171.0742548	346.520797	40150	4.939748019	12.92075
2009	283	17.78	11.67	16.1	0.475775	390.5188521	98.41761484	39989	6.180430807	13.10905
2009	284	14.44	5	11.85	0	373.7990604	209.3787285	39828	6.540459256	10.3938
2009	285	12.78	3.89	10.33	0	340.3996733	336.8411526	39667	6.733773623	9.37385
2009	286	9.44	3.89	7.92	0.005983333	283.6007623	134.8980966	39508	6.977159114	10.0573
2009	287	13.33	0	9.67	3.33333E-05	252.7312396	155.3075809	39349	7.035480593	8.38545
2009	288	7.22	0.56	5.39	2.513708333	65.32204503	143.7659156	39191	8.195509043	7.2423
2009	289	3.89	-0.56	2.67	1.276416667	39.74306619	41.64829759	39033	12.72253607	5.8772
2009	290	1.67	0	1.21	0.679866667	44.46893486	105.1623624	38876	13.86336111	6.36915
2009	291	3.89	0	2.82	0.185891667	193.5736985	86.93755165	38720	13.84828287	7.28405
2009	292	10	-1.11	6.94	0	279.1027575	257.0438221	38565	13.39280634	6.8181
2009	293	12.78	0	9.26	0	396.3782907	402.2132462	38411	13.3010567	8.51305
2009	294	19.44	6.67	15.93	3.33333E-05	513.2498888	342.0583407	38258	13.2435887	9.61805
2009	295	21.11	7.78	17.44	0	743.1655047	279.9480397	38106	13.23647633	10.5356
2009	296	21.67	8.33	18	0.837983333	421.5513789	314.7272296	37955	13.65283479	11.2232
2009	297	17.22	11.11	15.54	7.42895	347.2655167	117.1349064	37804	15.89721601	12.3788
2009	298	18.33	6.67	15.12	0	724.291248	136.2429425	37655	14.87787035	10.7602
2009	299	15	2.78	11.64	0	419.3229011	365.9718719	37507	14.38171103	9.57615
2009	300	15.56	3.33	12.19	0.064833333	201.9614038	343.4797248	37361	14.2037594	9.81235
2009	301	13.33	7.78	11.81	1.282408333	131.5099396	136.5894397	37215	15.78014631	11.2385
2009	302	15	11.11	13.93	4.16667E-05	246.9586021	83.21016428	37071	15.1923796	11.75305
2009	303	13.33	10	12.42	0.013566667	246.492101	79.03531196	36928	14.87573664	11.49
2009	304	14.44	11.11	13.53	0.110216667	391.4013184	58.89743659	36787	14.73704532	11.76355
2009	305	16.67	5.56	13.61	0	645.7503674	58.59573771	36647	14.58725869	10.3931
2009	306	11.67	-0.56	8.31	3.33333E-05	308.9746219	300.2259717	36509	14.25624873	8.59645
2009	307	12.78	0	9.26	0.032983333	442.227101	341.7961344	36372	14.07346068	8.43725
2009	308	12.22	-1.11	8.56	0.001616667	384.6979668	277.2042388	36237	13.77459866	7.15355
2009	309	7.78	-1.11	5.33	0.077083333	213.3716827	194.7745617	36103	13.64159724	6.94155
2009	310	7.22	0.56	5.39	0	391.6988879	113.8939145	35971	13.55155456	6.2898
2009	311	7.78	-2.22	5.03	0	335.0895566	336.1670712	35841	13.37104247	5.9685
2009	312	13.33	-2.22	9.06	0	394.3304765	306.7477949	35713	13.49309084	8.16835
2009	313	21.11	5.56	16.83	0	457.0171514	315.5840499	35586	13.47459866	8.77955
2009	314	19.44	5.56	15.62	0	543.8915295	189.9116237	35462	13.4492786	9.5795
2009	315	14.44	5.56	12	0.015083333	742.7692553	138.9815218	35339	13.33476936	8.9022
2009	316	10.56	2.22	8.26	0	635.896958	173.1909481	35219	13.16222313	8.04235
2009	317	10	2.78	8.01	6.66667E-05	609.4263692	186.6418803	35100	13.24003251	9.165
2009	318	15.56	5	12.65	0.003733333	362.9603322	271.4951978	34984	13.53747206	10.6198
2009	319	14.44	4.44	11.69	1.66667E-05	298.1035457	133.4935475	34870	13.46080065	10.4167
2009	320	19.44	5.56	15.62	0	734.7430277	276.6466239	34759	13.41528145	10.21315
2009	321	12.78	5.56	10.79	0	794.3924701	289.2625473	34649	13.22196708	9.13115
2009	322	8.89	2.78	7.21	0	365.799792	100.9619594	34542	12.99991872	8.0337
2009	323	10	4.44	8.47	1.212533333	110.5722992	173.5931529	34438	14.16691729	9.20195
2009	324	11.11	6.11	9.74	0.043433333	439.1936874	54.9111137	34336	15.65610648	9.10045
2009	325	10	5	8.62	0	315.3315028	191.1826679	34237	15.25141231	8.61755
2009	326	10.56	5	9.03	0	191.8939447	116.415993	34140	14.9064621	7.42215
2009	327	8.33	3.89	7.11	0.046891667	215.7106532	80.56611643	34046	14.75809795	7.6927
2009	328	9.44	4.44	8.07	0.679641667	79.92162581	92.74624492	33954	16.00461288	8.65685
2009	329	9.44	6.67	8.68	0.029666667	100.914755	76.33266403	33866	15.72011786	8.86125
2009	330	10.56	2.22	8.26	0.4603	98.29357923	92.60408526	33780	15.64799837	8.0328
2009	331	10	2.22	7.86	0.246758333	323.7376413	140.3104727	33697	16.00319041	6.6468
2009	332	5.56	1.67	4.49	0.036091667	219.0044832	100.8761378	33618	15.53619183	5.5405
2009	333	5	0	3.62	0	273.8465278	97.60299335	33541	15.28142654	5.6978
2009	334	16.11	0.56	11.83	0.126091667	443.3355542	253.7934981	33467	15.30745783	7.27225
2009	335	11.11	-0.56	7.9	0.000958333	346.3394737	63.40611432	33397	15.01869539	5.013
2009	336	6.11	-2.22	3.82	0.656725	74.259888	119.4484083	33329	15.16151189	4.32405
2009	337	12.78	-1.67	8.81	0.898241667	269.6985342	68.63177514	33265	16.29835399	6.84645
2009	338	11.67	2.78	9.22	0.00245	404.3970804	58.21304662	33204	15.68526722	5.4088
2009	339	5	-1.11	3.32	0.464875	103.075495	140.8872262	33146	15.33590734	3.7398
2009	340	0.56	-3.89	-0.67	0.001691667	169.5391919	39.108425	33092	15.61385897	3.2568
2009	341	0.56	-5.56	-1.12	0.002908333	114.5965167	283.8162586	33041	15.4750254	2.5602
2009	342	1.11	-5.56	-0.72	0.000591667	191.6584817	88.95050465	32993	15.3579557	3.20735
2009	343	3.33	-1.11	2.11	3.267383333	93.08141013	218.1263771	32949	15.64828287	2.6833
2009	344	6.11	-3.33	3.51	0.002883333	362.2057389	154.7091677	32909	15.78213778	2.08905
2009	345	-2.22	-10	-4.36	1.66667E-05	241.5653984	166.6408798	32872	15.34017476	0.9998
2009	346	-2.78	-9.44	-4.61	0	243.8525446	204.1721177	32838	15.13363138	0.8279
2009	347	2.22	-5.56	0.08	1.664683333	137.7923547	275.3377835	32808	15.42196708	1.11355
2009	348	5	-0.56	3.47	0.000416667	126.5436996	51.09499115	32782	15.99835399	1.7291
2009	349	7.78	2.78	6.4	0.1445	169.7839001	131.1490583	32759	15.97090022	2.2182
2009	350	7.78	-3.89	4.57	0.01185	351.5186021	52.82345754	32740	15.7549685	1.33815
2009	351	-1.11	-7.22	-2.79	0.001183333	194.6349855	233.9156582	32724	15.36577931	0.6623
2009	352	-1.67	-6.67	-3.04	0	190.6060358	212.0011005	32712	15.19920748	0.9781041
2009	353	0	-6.67	-1.83	0.758841667	69.38089985	178.18591	32704	15.05667547	1.0724188
2009	354	-4.44	-7.22	-5.21	0.020958333	141.3702265	62.00299703	32699	14.95966267	1.34780495
2009	355	0	-6.11	-1.68	0.001766667	163.3830332	250.2578751	32698	14.9235318	1.50747995
2009	356	0.56	-3.33	-0.51	0.00515	181.8306143	200.249656	32701	15.01599268	1.6061591
2009	357	1.11	-9.44	-1.79	0	198.3102232	114.6239031	32707	14.81400122	0.74700115
2009	358	-1.67	-9.44	-3.81	0	130.5850733	276.4927713	32717	14.92282056	0.59158415
2009	359	0	-5.56	-1.53	0.436566667	66.77951248	271.6298005	32731	15.2780126	0.84365775
2009	360	6.11	-1.67	3.97	2.204083333	54.83178188	43.00454976	32749	16.35752896	1.9840566
2009	361	6.67	-2.78	4.07	0.003083333	160.2968077	50.7335978	32770	15.96919325	2.70163605
2009	362	5	-2.78	2.86	0.011341667	256.0515326	196.5332378	32794	15.58199553	1.56155655
2009	363	-2.22	-7.78	-3.75	0.049575	202.1849359	131.618122	32822	15.22452754	0.29480155
2009	364	-4.44	-9.44	-5.82	0	146.7228171	227.6367566	32854	14.75269254	0.09637875
2009	365	-1.67	-9.44	-3.81	0.426108333	66.96507975	174.9951656	32889	14.61954887	0.20431905
2010	1	0	-3.89	-1.07	0.021008333	111.5198336	85.07561953	32928	14.8208291	0.42485
2010	2	2.78	-7.78	-0.12	0.079366667	216.0043044	110.3866428	32971	14.75340378	0.22495
2010	3	-6.67	-11.11	-7.89	0.004641667	118.5879497	178.9096526	33017	14.42495428	0.0677
2010	4	-6.11	-10.56	-7.33	0.005375	120.014054	82.91417166	33066	14.02708799	-0.0272
2010	5	-3.89	-7.78	-4.96	0.004258333	132.4565973	107.471542	33119	13.77602113	-0.0654
2010	6	-2.78	-7.78	-4.15	0.024658333	121.4258647	86.79933685	33175	13.5720382	-0.02655
2010	7	-1.11	-3.89	-1.87	0.000208333	165.2800878	66.69669615	33234	13.5522658	0.00825
2010	8	-1.67	-6.11	-2.89	0.136158333	125.2094245	84.95921432	33296	13.58498273	0.0258
2010	9	-4.44	-8.89	-5.67	0.005166667	176.6695034	209.6644086	33362	13.70745783	-0.1322
2010	10	-2.78	-13.33	-5.68	0	146.0890171	292.5369268	33431	13.76222313	-0.2808
2010	11	-4.44	-13.33	-6.89	0.016116667	127.458138	261.7366803	33503	13.66976224	-0.24485
2010	12	-2.22	-9.44	-4.21	0.00085	147.7534395	156.5544537	33579	13.41400122	-0.4136
2010	13	-2.22	-6.67	-3.44	0	169.3752225	206.6843747	33657	13.39053038	-0.30005
2010	14	0	-7.78	-2.14	0	186.0429463	176.3264865	33738	13.46350335	-0.4601
2010	15	7.22	-7.22	3.25	0	245.8080478	288.1660458	33822	13.8351961	-0.051
2010	16	5.56	2.22	4.64	0	241.7271257	59.95647173	33909	14.597785	0.33325
2010	17	9.44	-1.67	6.39	1.630925	67.46757635	170.790435	33999	15.74856736	0.3557
2010	18	3.89	-1.11	2.51	0.043708333	129.5067224	26.47219289	34092	16.14472668	1.0997
2010	19	6.11	2.22	5.04	0.014733333	179.3813113	203.5951093	34187	15.89323308	1.03715
2010	20	4.44	-2.22	2.61	0	253.3243194	45.43497156	34285	15.65283479	0.8093
2010	21	1.67	-7.22	-0.78	0	178.2963888	164.4032455	34386	15.39636253	0.62425
2010	22	3.33	-6.67	0.58	0.065466667	242.7984897	294.5434776	34489	15.39252185	1.04025
2010	23	2.78	-4.44	0.79	0	267.359495	103.8670328	34595	15.30546637	0.99835
2010	24	5	-5	2.25	1.057183333	142.2054918	298.4909374	34703	15.51371672	1.36965
2010	25	13.33	1.67	10.12	4.141916667	284.4608514	68.47710691	34814	17.012152	4.75605
2010	26	11.67	-1.67	8	0.027716667	387.2378933	77.96546985	34926	16.14757163	2.4762
2010	27	0.56	-3.89	-0.67	0.003583333	234.7107231	176.6892301	35042	15.76521032	1.2507
2010	28	0.56	-3.89	-0.67	0.068183333	202.1964405	229.6415143	35159	15.52125584	0.5752
2010	29	1.67	-13.33	-2.46	0	232.2756603	193.8167697	35278	14.8693355	-0.06185
2010	30	-7.22	-13.33	-8.9	0	153.0169118	276.4918644	35400	14.29138387	-0.40455
2010	31	-8.33	-13.89	-9.86	0	155.742414	142.3351068	35523	13.69294859	-0.8738
2010	32	-2.22	-13.33	-5.28	0	191.5766279	338.7432467	35649	13.48313351	-0.81785
2010	33	-1.11	-7.78	-2.94	0.048866667	149.8203472	258.1529517	35776	13.42324731	-0.51775
2010	34	1.67	-6.67	-0.62	0.1417	138.2543235	170.4110291	35905	13.65425726	-0.2968
2010	35	1.11	-4.44	-0.42	0	282.8756916	113.4632035	36036	14.04700264	-0.4023
2010	36	3.33	-4.44	1.19	0.297025	169.1546818	336.3579861	36169	14.41087177	-0.1987
2010	37	1.11	-5.56	-0.72	1.478475	179.3266347	68.67597719	36303	14.58626295	-0.10205
2010	38	-2.22	-15.56	-5.89	1.66667E-05	140.014984	205.5920143	36440	14.6178419	0.0505
2010	39	-2.22	-14.44	-5.58	1.66667E-05	135.2405321	369.5466277	36577	14.62595001	0.0966
2010	40	-1.67	-10.56	-4.11	0.08035	77.78833028	401.6545103	36716	14.58981914	0.1391
2010	41	-2.22	-8.89	-4.06	0.891358333	61.59693208	131.9910465	36857	14.6067466	0.0764
2010	42	-2.78	-9.44	-4.61	0.002291667	139.1377205	104.2889808	36999	14.63690307	0.11825
2010	43	-1.11	-5.56	-2.33	3.33333E-05	209.4065999	229.4715828	37143	14.73121317	0.27105
2010	44	1.11	-7.78	-1.33	0.000233333	211.6857332	340.1720171	37287	14.8268035	0.2314
2010	45	-3.33	-7.78	-4.56	0.014183333	137.1988201	192.6055619	37433	14.79764276	0.22225
2010	46	-1.11	-9.44	-3.4	0.297308333	119.729269	126.4190948	37581	14.70589311	0.29775
2010	47	0.56	-9.44	-2.19	0.084291667	165.7281876	221.9893451	37729	14.72296281	0.30895
2010	48	-1.11	-6.67	-2.64	0.011191667	161.4629869	248.4792629	37879	14.75368827	0.3627
2010	49	0.56	-5	-0.97	0.007591667	215.9663021	192.9330774	38029	14.83647633	0.43635
2010	50	2.78	0	2.01	0.000183333	320.3520665	270.4695529	38181	15.48043081	0.43115
2010	51	4.44	-3.89	2.15	0	334.1611361	301.7261178	38334	16.2007722	0.37345
2010	52	5	-3.89	2.56	0	409.1621616	232.2372749	38487	16.29422882	0.39555
2010	53	7.22	-3.33	4.32	0.125525	253.520992	407.1309456	38642	16.38654745	0.44675
2010	54	4.44	-2.22	2.61	0.041291667	75.61425035	137.8104026	38798	16.26919325	0.5241
2010	55	3.33	-0.56	2.26	0	263.6064599	104.6039945	38954	16.3837025	0.71
2010	56	2.78	-2.22	1.4	0.043733333	207.1322165	208.8667638	39111	16.31698842	0.5603
2010	57	0.56	-6.67	-1.43	0.315566667	120.0686571	222.8887927	39269	16.05681772	0.34435
2010	58	-2.22	-5.56	-3.14	0.068416667	119.7091058	132.2950695	39428	15.92964845	0.5338
2010	59	1.67	-3.89	0.14	0.043183333	187.3356345	272.2746861	39587	16.07075798	0.6136
2010	60	4.44	-1.11	2.92	0.008058333	233.5345711	251.1958638	39747	16.40631985	0.7826
2010	61	3.89	0	2.82	0.000425	243.5892452	165.3150575	39907	16.39693152	0.85235
2010	62	3.33	-0.56	2.26	0.048066667	207.0671659	182.1579814	40068	16.44558017	0.9594
2010	63	4.44	-2.78	2.46	0	394.4714723	115.5337808	40230	16.48981914	1.014
2010	64	5	-2.78	2.86	0	426.5389723	439.5047534	40392	16.44799837	1.38415
2010	65	7.22	-5	3.86	0	483.723969	419.4639872	40555	16.32438529	1.60335
2010	66	9.44	-4.44	5.62	0	602.7230652	467.4409352	40718	16.13747206	2.81135
2010	67	10.56	-1.11	7.35	0	646.133554	460.0942958	40882	15.93462711	3.8236
2010	68	11.67	-0.56	8.31	0	594.5900011	461.4164596	41046	15.73647633	4.48245
2010	69	15.56	1.11	11.58	0.000808333	679.1629471	454.4945402	41210	15.56677505	5.2261
2010	70	15.56	2.22	11.89	0.002408333	541.3981871	261.2535589	41375	15.56762853	7.5602
2010	71	18.89	3.89	14.76	0.818983333	178.3883097	421.2968946	41540	15.99622028	7.50245
2010	72	10	5	8.62	2.895616667	123.9284277	64.10411222	41705	17.10888031	6.3749
2010	73	8.33	5	7.42	0.880633333	103.5372274	55.12892286	41870	16.9381833	6.1871
2010	74	6.67	4.44	6.06	0.045566667	196.7819722	65.61390237	42036	16.54799837	5.8864
2010	75	6.67	4.44	6.06	1.66667E-05	528.4148953	78.1147339	42202	16.39764276	7.54625
2010	76	15.56	-0.56	11.13	0	786.6147442	476.9151246	42368	16.15852469	7.27365
2010	77	17.78	0	12.89	0	884.5385146	492.73607	42534	15.90845357	7.3701
2010	78	18.89	1.67	14.15	0	912.8883794	470.4246036	42701	15.74074375	8.23255
2010	79	20	6.11	16.18	0	1037.163672	467.6267992	42867	15.57616338	9.093
2010	80	21.11	6.67	17.14	0	1167.51575	434.3761299	43033	15.46336111	10.6082
2010	81	22.78	7.78	18.65	0.3143	561.2853258	416.7556944	43200	15.35055883	10.98355
2010	82	18.33	7.78	15.43	0.246025	335.6198265	124.479454	43366	15.50859581	8.70925
2010	83	8.33	2.78	6.81	0.000108333	570.5693522	48.67755496	43533	15.53832554	8.40525
2010	84	15.56	2.78	12.04	0.200816667	517.5675446	503.9315774	43699	15.44714489	8.36645
2010	85	18.33	-1.11	12.99	1.101366667	733.2761299	231.4165508	43865	16.73676082	7.6862
2010	86	5	-5.56	2.1	0	443.5347271	467.6842978	44032	16.16264987	5.67815
2010	87	8.89	-5.56	4.92	2.144625	172.9833566	470.2192181	44198	16.28555172	4.8902
2010	88	7.22	2.78	6	0.182625	186.4774684	150.5477538	44363	16.75539524	7.63325
2010	89	14.44	1.67	10.93	0.001841667	690.6611826	225.4681668	44529	16.33107092	6.77815
2010	90	10	1.67	7.71	0.000325	707.0691914	266.377738	44695	16.16734404	8.67705
2010	91	20	5	15.88	0	1108.768058	511.437004	44860	16.00006096	10.3838
2010	92	26.67	6.67	21.17	0	1343.450028	507.3818101	45025	15.83320463	12.1475
2010	93	28.33	10	23.29	0	1371.97667	462.4367559	45190	15.64842512	13.08435
2010	94	25.56	12.22	21.89	0	1784.308152	435.8771001	45354	15.41314773	12.6839
2010	95	21.11	7.22	17.29	0.001283333	1113.620212	465.9983303	45518	15.09266409	12.4913
2010	96	26.67	8.33	21.63	0.1036	1268.346143	406.7829076	45681	15.07986182	14.62525
2010	97	30	15.56	26.03	0	2277.840818	446.655186	45845	14.94842512	14.6087
2010	98	29.44	12.22	24.71	0.188058333	1355.85076	379.7380833	46007	14.69053038	14.0628
2010	99	28.89	4.44	22.17	0.03315	1122.008326	372.5798913	46169	14.27687462	10.1235
2010	100	7.22	3.89	6.31	0.008375	562.5312808	179.55233	46331	14.04572241	10.1236
2010	101	16.67	5.56	13.61	0	923.1641868	548.0731954	46492	13.96976224	10.915
2010	102	21.11	2.78	16.07	0	1318.838169	437.8569009	46653	13.87758586	11.38155
2010	103	18.89	4.44	14.92	0.001133333	845.7859205	518.1982569	46813	13.5920951	9.9551
2010	104	13.33	0	9.67	0	506.9135009	221.6722941	46972	13.36350335	10.11715
2010	105	18.33	2.78	14.06	0	837.0168582	526.7408075	47131	13.32196708	11.29485
2010	106	25.56	7.78	20.67	0.412966667	874.0810633	461.4455159	47289	13.3322089	12.81065
2010	107	25.56	6.11	20.21	0.19925	825.0047669	318.0201281	47446	13.45240805	9.6511
2010	108	7.22	1.67	5.69	0.023616667	312.1296568	170.5551657	47602	13.24757163	8.27765
2010	109	9.44	1.67	7.31	0	517.9129054	200.2423678	47758	13.27132697	9.9938
2010	110	17.22	2.22	13.1	0	745.8473127	558.1331817	47912	13.22324731	10.67165
2010	111	18.33	5	14.67	0.06255	608.2405161	482.3339367	48066	13.06962	10.9199
2010	112	20	4.44	15.72	0.056466667	751.3825465	396.1591281	48219	12.90191018	10.98065
2010	113	20	3.33	15.42	0	1116.214058	385.3875336	48370	12.72723024	11.48975
2010	114	19.44	3.89	15.17	0.070741667	757.695633	564.1263783	48521	12.3837025	10.0892
2010	115	16.67	6.11	13.76	1.24475	125.4044897	259.9680097	48671	12.6720382	9.99395
2010	116	11.67	7.78	10.6	1.029241667	100.9510084	107.3452959	48819	15.06208088	10.27355
2010	117	12.22	5.56	10.39	0.198733333	599.0647484	107.8803864	48966	16.29735826	10.041
2010	118	11.11	1.67	8.51	0	629.9726654	455.3688101	49112	15.7549685	8.95395
2010	119	12.78	2.78	10.03	0	801.9290074	399.0018881	49257	15.48299126	10.49355
2010	120	19.44	6.67	15.93	0	905.2578058	546.7403494	49401	15.21314773	12.62295
2010	121	27.78	10	22.89	0	1358.744456	521.5866621	49543	14.84117049	14.48965
2010	122	30.56	15.56	26.43	0.23245	594.7040993	450.8251716	49683	14.38228002	15.07285
2010	123	23.89	17.78	22.21	1.59415	641.6816102	146.5390482	49823	16.67474091	15.9993
2010	124	25	12.78	21.64	0.37015	871.2859522	270.4929544	49960	16.30973379	14.34335
2010	125	22.22	8.89	18.56	0	858.2302341	442.5669115	50096	15.83903678	14.15175
2010	126	26.67	11.11	22.39	0.27015	1221.65997	569.4504788	50231	15.65055883	14.56045
2010	127	21.11	6.11	16.99	0	743.1969638	560.3188452	50363	15.17346068	13.03455
2010	128	20.56	8.33	17.19	0.721991667	641.877035	446.5041489	50495	15.90134119	12.9094
2010	129	16.11	2.78	12.44	0.037625	632.339722	343.873558	50624	15.61229425	9.71015
2010	130	8.33	2.22	6.65	0	538.1930523	221.9358042	50751	15.11144076	9.7535
2010	131	15	1.67	11.33	1.692641667	284.1894484	601.7866816	50877	15.55397277	8.17165
2010	132	9.44	3.33	7.76	1.605108333	95.03821326	84.61235294	51000	16.97402967	9.36805
2010	133	16.11	6.67	13.51	0.000833333	325.1761622	124.2531591	51122	16.37587889	10.4872
2010	134	14.44	7.78	12.61	0.162083333	322.4562471	204.1767335	51241	16.17715911	13.00815
2010	135	27.22	11.11	22.79	0.132266667	1337.088583	332.1215001	51358	15.99863849	13.6373
2010	136	21.11	10.56	18.21	0.002566667	900.2163436	517.0892312	51473	15.30219468	13.3226
2010	137	19.44	8.89	16.54	0.335833333	439.1544302	545.8230915	51586	14.75624873	12.1262
2010	138	15.56	8.33	13.57	0.513241667	179.6434306	138.9265141	51697	15.96606381	11.1117
2010	139	11.67	8.33	10.75	0.000191667	250.5843739	92.26130682	51805	16.05980492	11.71315
2010	140	17.78	10	15.64	0	659.6935837	253.1652475	51910	15.62424304	13.9381
2010	141	27.22	13.33	23.4	0	1003.374627	550.5801323	52014	14.88683194	14.724
2010	142	27.78	15.56	24.42	0.303733333	781.8861175	410.6865142	52114	14.27687462	14.86865
2010	143	22.22	15	20.24	1.86885	266.716222	299.7104497	52212	17.5438732	15.4155
2010	144	22.22	13.89	19.93	0.00325	399.917488	255.3545538	52308	16.76833977	15.6872
2010	145	23.33	15	21.04	0.00005	644.1077855	286.6230725	52400	16.12879496	16.79895
2010	146	26.67	16.11	23.76	0	895.8815694	439.6306725	52490	15.31684617	17.49145
2010	147	30	17.78	26.64	3.33333E-05	1313.359499	547.7983339	52577	14.36506808	18.4505
2010	148	30.56	18.89	27.35	0.036416667	664.1662989	479.0819376	52662	13.30091445	17.6645
2010	149	26.11	17.78	23.82	0.000433333	684.3608582	289.6928502	52743	12.54472668	17.88495
2010	150	26.11	13.33	22.6	0	956.8020012	354.3647792	52821	11.43420037	17.787
2010	151	30	16.11	26.18	0.123666667	789.0704057	569.5046317	52896	10.28028856	17.96995
2010	152	30.56	17.78	27.04	0.306483333	503.5565497	397.5129038	52969	9.582280024	18.05015
2010	153	26.11	14.44	22.9	0	795.9966503	256.7324937	53038	8.947002642	17.93345
2010	154	28.33	16.11	24.97	0.000383333	918.3023758	527.5724912	53103	8.213289982	18.6541
2010	155	27.78	18.89	25.33	0.001325	670.8221589	376.3463868	53166	7.499349726	18.71835
2010	156	28.33	18.89	25.74	0.226383333	534.0558894	354.1336778	53225	7.033062386	18.8119
2010	157	27.78	18.89	25.33	0.106141667	791.4485343	293.8819467	53281	6.632351148	18.6585
2010	158	25.56	12.78	22.04	0.0003	1096.404058	343.5280309	53334	5.902621418	16.5077
2010	159	21.11	10	18.06	0	920.4562131	410.4082198	53383	5.19166836	15.667
2010	160	22.22	11.67	19.32	3.927258333	255.7260075	585.2579124	53429	9.370900224	14.1904
2010	161	17.22	12.22	15.85	0.003291667	513.1863292	72.04826916	53471	11.4522658	16.46785
2010	162	25.56	12.78	22.04	0	685.5874432	487.6168193	53510	9.907742329	16.7669
2010	163	25.56	13.89	22.35	0.019616667	570.430018	467.1209801	53546	9.078723837	18.54035
2010	164	31.11	19.44	27.9	0.528716667	730.595471	471.5924371	53577	8.703332656	19.7671
2010	165	28.33	16.67	25.12	0.008216667	625.1153143	296.6134574	53606	8.368197521	18.63015
2010	166	25	18.33	23.17	0.003133333	529.8318543	218.7056312	53630	7.951981305	18.01795
2010	167	23.33	17.78	21.81	0.119383333	485.7824635	255.665188	53651	7.752123552	18.58725
2010	168	28.33	17.22	25.28	0	1173.624179	428.3863683	53669	7.342450721	18.3235
2010	169	23.33	11.67	20.12	0	676.6384707	434.4317648	53682	6.550985572	17.5567
2010	170	27.22	13.89	23.56	0	778.92801	574.6877247	53693	6.027799228	18.76825
2010	171	31.11	17.78	27.44	0.041833333	1104.615981	503.0047114	53699	5.619548872	19.7258
2010	172	28.89	16.11	25.38	0	1056.244733	418.5089568	53702	5.027941475	19.478
2010	173	29.44	18.89	26.54	0.345633333	654.9866769	523.446677	53701	4.649420849	19.1849
2010	174	27.78	20.56	25.79	0.011108333	875.979023	289.275514	53696	4.55283479	20.5325
2010	175	31.67	20.56	28.61	0.035641667	1198.900125	496.9816905	53688	4.198211746	20.3968
2010	176	28.33	16.67	25.12	0	1026.932597	378.4889336	53676	3.697927251	19.67355
2010	177	27.22	17.22	24.47	0	950.2680028	495.7837908	53661	3.266917293	18.2014
2010	178	30	19.44	27.1	1.03355	899.8804639	446.1037453	53641	3.254399512	20.1199431
2010	179	31.67	21.11	28.76	0.1209	968.1793801	452.7681046	53619	3.449563097	20.4326932
2010	180	26.67	19.44	24.68	0.017883333	1134.858296	228.4517279	53592	3.276305629	19.69275925
2010	181	25	8.89	20.57	0	1057.861714	488.4842612	53562	2.669051006	17.26080255
2010	182	22.22	10	18.86	0	983.406447	539.4237142	53529	2.301483438	16.39046735
2010	183	22.22	10	18.86	0	883.5957742	474.1217962	53491	2.057528958	16.36619675
2010	184	25	12.22	21.49	0	1060.72511	574.5579877	53451	1.929506198	17.07579245
2010	185	30	13.33	25.42	0	1367.643937	574.7227143	53407	1.875452144	18.13305385
2010	186	32.78	18.33	28.81	0	1530.310727	565.443018	53359	1.636334078	19.56672245
2010	187	34.44	20.56	30.62	0	1773.996979	475.057271	53308	1.851554562	20.3737199
2010	188	33.89	21.11	30.38	0	1710.002764	492.9856537	53254	1.646575899	21.0011362
2010	189	33.89	21.11	30.38	0	1870.65705	496.0998383	53196	1.660089413	20.9694141
2010	190	34.44	22.22	31.08	2.081583333	1197.390857	476.904338	53135	1.595224548	21.1201473
2010	191	32.78	18.33	28.81	1.728766667	1312.467067	392.8769196	53071	1.807031091	20.67209925
2010	192	27.78	14.44	24.11	0	1133.416809	525.5413365	53004	1.980573054	19.5853512
2010	193	30	17.22	26.49	0.73635	682.3568476	568.3926095	52933	2.300203211	19.1418805
2010	194	27.78	19.44	25.49	0.059183333	456.26382	344.053689	52860	3.536049583	19.77472575
2010	195	25.56	19.44	23.88	1.139066667	524.0691574	206.5965368	52783	4.088965657	20.49965025
2010	196	28.33	18.33	25.58	0	848.8172994	312.7365805	52703	4.440459256	21.8103
2010	197	30.56	20	27.65	0.48655	485.2050045	501.7411631	52620	4.566775046	20.8047
2010	198	29.44	18.89	26.54	0.000166667	831.2836514	324.7284858	52535	4.703474903	21.1936
2010	199	30	18.89	26.94	0.0028	1335.872475	494.1107234	52446	4.72538102	21.94895
2010	200	31.67	22.22	29.07	0.00055	1172.862153	516.2557922	52355	4.431639911	21.58485
2010	201	30.56	18.33	27.19	0.4471	546.8714812	459.8963854	52261	5.869193253	20.7184
2010	202	29.44	18.89	26.54	0.416091667	750.04759	326.6476689	52164	6.192379598	21.49515
2010	203	31.11	18.89	27.75	0.344708333	979.5500502	417.1403822	52065	6.120686852	21.18765
2010	204	29.44	20	26.85	0.001166667	1130.484838	516.7896773	51963	5.026803495	22.2376
2010	205	33.89	22.22	30.68	0.002166667	1667.306151	440.4106213	51858	4.188681162	23.31115
2010	206	32.78	22.22	29.88	0.206216667	1058.341802	478.5279318	51751	3.414001219	22.02895
2010	207	27.22	17.22	24.47	0	1104.311093	280.8925487	51642	2.765779313	20.3593
2010	208	27.78	16.11	24.57	0	989.1303315	564.1301378	51530	2.213716724	20.01675
2010	209	29.44	18.33	26.39	0	1062.703218	530.1708773	51417	1.928368218	20.79865
2010	210	30.56	20	27.65	0.312433333	1242.692256	499.9139181	51300	1.856390977	21.5925
2010	211	28.89	14.44	24.92	0	1191.594979	458.6983705	51182	1.52139809	19.4826
2010	212	25.56	13.33	22.19	0	1046.683227	492.6402217	51062	1.242166226	19.0563
2010	213	26.67	15.56	23.61	0.0018	1014.72537	468.5463397	50939	1.194371063	19.99915
2010	214	27.78	18.33	25.18	0	799.9971262	406.3037292	50815	1.011440764	19.4676
2010	215	25.56	19.44	23.88	0.12175	482.7329491	319.319839	50688	0.967059541	20.1243
2010	216	28.33	21.67	26.5	0.1883	643.2302471	250.2314478	50560	1.115708189	21.54945
2010	217	32.22	20.56	29.01	0.015533333	1043.26288	360.6039064	50430	1.100203211	21.46715
2010	218	28.33	18.33	25.58	0.19875	980.2004728	368.7530916	50298	0.975025401	20.35915
2010	219	25.56	15	22.65	0	950.096899	392.7425644	50164	0.727230238	19.36829965
2010	220	26.67	13.89	23.15	0	1108.238357	462.3589718	50029	0.573176184	19.12303885
2010	221	29.44	15	25.47	0	1455.063619	506.9994989	49892	0.468482016	19.8303991
2010	222	32.22	17.22	28.1	0	1413.836914	509.5128834	49754	0.499491973	21.97115
2010	223	32.22	20	28.86	0	1543.52506	388.7245536	49614	0.59109937	21.68055
2010	224	31.67	20	28.46	1.727325	407.2173777	505.668277	49472	0.688681162	20.69545
2010	225	23.33	16.67	21.5	0.066308333	456.9723593	142.4630043	49330	0.896931518	19.37285
2010	226	21.67	17.22	20.44	0	729.8387913	171.2793884	49186	1.055395245	19.13545
2010	227	24.44	19.44	23.07	0.923683333	306.2990266	208.9867047	49040	1.640032514	19.6496
2010	228	27.22	19.44	25.08	0.000133333	894.7940435	221.0361394	48894	2.928510465	21.48875
2010	229	30	16.67	26.33	0	1297.342299	449.2098429	48746	1.4208291	19.68695
2010	230	27.78	17.78	25.03	0	866.6201794	506.3022615	48597	0.234342613	19.0692
2010	231	25.56	14.44	22.5	0	779.0633917	270.5033852	48446	1.914570209	19.03655
2010	232	30	16.11	26.18	0	1085.611031	468.7396625	48295	-0.332513717	19.65515
2010	233	29.44	16.67	25.93	0.0001	1022.523487	461.6193631	48143	-1.003637472	19.74695
2010	234	28.33	17.22	25.28	5.16885	519.1962818	306.8267764	47990	8.36136964	20.61935
2010	235	26.11	17.22	23.67	0.204908333	405.6654593	253.2890919	47836	9.434769356	18.9186
2010	236	20.56	15	19.03	0.027841667	371.05711	155.1791699	47681	8.979435074	18.67658755
2010	237	20.56	15	19.03	0.044958333	441.8330614	172.3907628	47525	8.6579557	18.9059873
2010	238	25	16.67	22.71	0.000158333	877.2703059	279.0671128	47368	8.094228815	18.84435275
2010	239	24.44	10.56	20.62	0	748.6583543	455.2917814	47210	6.856390977	17.67084795
2010	240	25	10.56	21.03	0	779.5339742	547.6961022	47052	5.613289982	17.45049645
2010	241	27.22	12.22	23.1	0	791.4642562	536.0757896	46893	4.246006909	19.25715
2010	242	30.56	14.44	26.13	0	1024.022671	518.6078444	46734	5.599776468	18.93485
2010	243	30.56	16.67	26.74	0	1047.837738	511.5565456	46573	5.048282869	19.4774
2010	244	32.22	18.33	28.4	0	1262.067289	488.2495637	46413	4.426803495	19.8568
2010	245	32.22	18.33	28.4	0	1320.47912	492.8001341	46251	3.914143467	20.10395
2010	246	32.78	18.33	28.81	0.00065	1314.304528	503.9149906	46089	3.338610039	19.73125
2010	247	31.67	15	27.08	0	1431.1609	400.319028	45927	2.697785003	17.4729
2010	248	19.44	10.56	17	0	721.8798257	265.2846998	45764	2.071184719	15.4638
2010	249	20	7.78	16.64	0	679.7199161	415.3873904	45600	1.724669783	15.45825
2010	250	25.56	8.89	20.97	0	1107.261922	457.7717499	45437	1.644015444	17.706
2010	251	31.67	15	27.08	0	1890.012094	495.0344584	45272	1.497216013	18.5495
2010	252	23.89	13.33	20.99	0.000183333	1038.530398	503.5719828	45108	1.02993294	16.40635
2010	253	19.44	12.78	17.61	6.66667E-05	777.2339625	231.0999266	44943	0.820971347	16.25445
2010	254	20	8.33	16.79	0	748.6275351	290.650163	44778	0.590672628	15.6156
2010	255	22.78	10	19.26	0.660916667	216.9822357	447.5443705	44613	0.62595001	16.0779
2010	256	20.56	9.44	17.5	0.0016	619.4254481	139.7689383	44447	0.712863239	16.16095
2010	257	25	11.11	21.18	0	1061.000073	452.1078792	44281	0.668339768	15.6438
2010	258	22.78	11.11	19.57	0	990.0210669	500.4573501	44115	0.583560252	15.6025
2010	259	23.89	10.56	20.22	2.125225	372.4080067	503.9175863	43949	2.373460679	14.19645
2010	260	17.78	11.67	16.1	0.484125	375.0209321	84.36151018	43783	9.384555985	15.95805
2010	261	17.78	8.89	15.33	0.005	375.7720653	239.2505674	43617	7.744299939	15.2592
2010	262	22.78	8.89	18.96	0.0195	480.5608047	453.506214	43450	6.614854704	16.22885
2010	263	26.11	11.67	22.14	3.33333E-05	1081.792827	332.6857037	43284	5.68711644	15.76385
2010	264	20.56	7.22	16.89	0	643.9765751	493.7118306	43117	4.584982727	14.5052
2010	265	25	7.22	20.11	0.01325	635.0261859	480.9962981	42951	3.92481203	16.79105
2010	266	30.56	15	26.28	0.00045	782.4224953	375.1295812	42784	3.456533225	18.1603
2010	267	28.89	16.11	25.38	0	1217.707535	349.8233376	42618	2.99166836	19.1033
2010	268	31.11	17.22	27.29	0	1751.510632	405.625106	42452	2.38427149	18.8761
2010	269	25.56	10	21.28	0.000125	831.7510312	472.0965095	42286	1.585124975	15.8977
2010	270	18.33	10	16.04	1.195225	164.7892971	268.5343305	42120	4.206319854	16.21545
2010	271	20	13.33	18.17	1.661683333	426.1130836	99.07493922	41954	9.620117862	17.60795
2010	272	22.78	12.22	19.88	0	487.310112	298.0669331	41788	8.95738671	15.56565
2010	273	18.33	12.22	16.65	6.583841667	126.6738748	248.5008769	41623	10.37687462	15.845
2010	274	17.78	12.22	16.25	0.844658333	547.663525	17.46538666	41458	12.0067466	15.5730378
2010	275	18.33	5.56	14.82	0	426.5965178	271.3559683	41293	11.52481203	13.9933198
2010	276	16.67	5.56	13.61	0	575.8699083	458.080284	41129	10.9579557	13.7271948
2010	277	16.67	6.11	13.76	0.53855	278.6348763	337.7378674	40964	11.09821175	12.53016455
2010	278	9.44	6.67	8.68	0.212733333	133.5831472	101.3366339	40801	11.75454176	11.87954215
2010	279	11.11	7.78	10.19	0.127425	190.0250428	71.4293378	40637	11.79337533	12.02495285
2010	280	12.22	8.33	11.15	0.039575	463.5628944	85.42313584	40474	11.78597846	13.1570486
2010	281	18.89	7.22	15.68	0	655.8766755	338.7311719	40312	11.57886608	13.42328005
2010	282	22.22	7.78	18.25	0	779.6958025	438.6341968	40150	11.24344645	13.96830405
2010	283	22.78	6.67	18.35	0	692.8307783	417.9222036	39989	10.89095712	14.13606925
2010	284	25	6.67	19.96	0.066072917	741.3670975	369.4599528	39828	10.76848202	15.35556045
2010	285	24.44	12.78	21.24	0.1991125	521.5284483	277.3587617	39667	10.77744361	15.44926915
2010	286	20.56	3.33	15.82	0.09274375	566.6405233	344.9811684	39508	10.70062995	13.83551318
2010	287	15.56	3.89	12.35	0.14305	231.1095259	441.6509441	39349	10.5462914	12.55137102
2010	288	12.22	6.11	10.54	0.1139375	468.0303829	77.99188589	39191	10.6549685	12.49730187
2010	289	13.89	6.11	11.75	0.114870833	761.6832293	307.2938539	39033	10.6923796	12.46922751
2010	290	16.11	6.67	13.51	0.122252083	685.4528063	422.1212059	38876	10.67829709	12.28414468
2010	291	19.44	5	15.47	0.162904167	555.0569026	392.1113378	38720	10.55055883	11.96596856
2010	292	11.67	5.56	9.99	0.1466625	282.4429187	124.3855309	38565	10.60062995	11.75177157
2010	293	13.33	2.78	10.43	0.1443875	414.7898982	271.7385645	38411	10.63306239	10.85820064
2010	294	15.56	3.33	12.19	0.1517625	699.3025205	347.0574259	38258	10.66336111	10.854082
2010	295	13.33	3.33	10.58	0.159147917	490.3280585	282.2905054	38106	10.57858159	10.31643168
2010	296	10.56	3.33	8.57	0.166525	557.1833776	197.7326571	37955	10.52267832	10.41461131
2010	297	21.67	8.89	18.15	0.1739	1012.377238	300.9086076	37804	10.72154034	11.98982655
2010	298	22.78	10	19.26	0.189858333	789.3058313	292.8822202	37655	10.7663483	12.69133219
2010	299	20.56	10.56	17.81	0.18865625	358.6443465	159.6884315	37507	10.92794148	13.34998166
2010	300	20.56	11.11	17.96	0.5158375	632.6654051	209.8228366	37361	12.92225157	14.2014283
2010	301	21.11	12.22	18.67	0.212004167	1297.96509	332.1233642	37215	12.58768543	13.05622199
2010	302	17.78	6.11	14.57	0.217233333	689.7388036	358.5730895	37071	12.31044503	11.86302923
2010	303	9.44	1.11	7.15	0.2224625	444.2267866	155.9733536	36928	12.0378988	10.53937501
2010	304	14.44	1.67	10.93	0.22984375	808.029403	259.3493354	36787	12.00631985	10.72237827
2010	305	10.56	0	7.65	0.232933333	472.1719969	293.7119819	36647	11.84899411	9.806322197
2010	306	8.89	-2.78	5.68	0.240304167	319.3909071	371.8125668	36509	11.61869539	8.693745592
2010	307	8.89	-3.33	5.53	0.247679167	312.2789986	367.1941878	36372	11.49109937	8.297585137
2010	308	11.67	-1.67	8	0.604264583	83.69635213	355.4632834	36237	12.71713066	8.958892353
2010	309	7.22	4.44	6.46	0.2888375	175.9257212	54.8098496	36103	13.1435887	9.002563584
2010	310	7.78	0	5.64	0.269820833	172.1142941	100.7224709	35971	12.89223735	8.416066013
2010	311	6.67	-1.67	4.38	0.277195833	210.7492259	146.9910438	35841	12.72154034	7.713447216
2010	312	7.22	-1.67	4.78	0.284570833	361.6596132	185.7458068	35713	12.63235115	7.935631487
2010	313	12.78	1.67	9.72	0.291952083	368.5225518	335.5141348	35586	12.62111359	8.518141652
2010	314	13.33	2.78	10.43	0.2993375	419.5066571	310.0616716	35462	12.61442796	9.171559323
2010	315	15.56	-0.56	11.13	0.25615	492.2783269	330.0317213	35339	12.44330421	8.43292567
2010	316	14.44	-1.67	10.01	0	481.0964535	337.9227122	35219	12.26350335	7.851922784
2010	317	15.56	-2.78	10.51	0	559.4893169	340.6536752	35100	12.11954887	7.574971648
2010	318	16.11	-2.22	11.07	0	579.0470585	335.348102	34984	12.08626295	7.376330116
2010	319	16.11	1.11	11.99	0	372.2928587	248.0123315	34870	12.11926438	8.289251908
2010	320	11.11	5.56	9.58	0.537322917	152.0840852	203.0266118	34759	13.16279212	8.246120965
2010	321	13.33	6.11	11.35	0.203147917	320.9556925	44.64180784	34649	13.94771388	8.804495498
2010	322	10	4.44	8.47	0	232.0091213	67.80163279	34542	13.54970534	8.331898247
2010	323	7.22	0.56	5.39	0.0064375	269.3813889	64.19658517	34438	13.30731559	6.84658615
2010	324	8.33	1.67	6.5	0	277.0268488	233.4916997	34336	13.11542369	5.89683925
2010	325	9.44	0	6.85	0	207.7341228	107.2860356	34237	13.30246735	5.00265925
2010	326	10	0.56	7.4	0	298.3917824	257.8959578	34140	13.28149066	4.1013471
2010	327	16.11	7.78	13.82	0	539.9005792	237.1552899	34046	13.10428272	1.061348
2010	328	16.67	1.11	12.39	0	692.4428835	91.38558049	33954	14.17280677	0.98012665
2010	329	6.11	1.11	4.74	0.507597917	181.2210866	238.7872793	33866	13.89850121	0.63118355
2010	330	6.67	1.67	5.29	0.2343625	222.6173954	31.3071048	33780	14.66460065	0.26286655
2010	331	5.56	-1.67	3.57	0.0618	302.8723865	234.1558002	33697	15.60353254	0.4554346
2010	332	1.67	-1.11	0.9	0.027897917	235.2704458	74.68713189	33618	13.49109937	0.71719515
2010	333	5.56	-4.44	2.81	0	198.9130146	285.5329895	33541	13.27787035	0.6702507
2010	334	7.22	-4.44	4.01	0.559314583	144.0269041	271.9509367	33467	14.00164731	0.29480155
2010	335	15.56	6.11	12.96	0.634014583	217.6643005	35.0959667	33397	13.69941573	0.19857075
2010	336	8.89	-3.33	5.53	0	225.6602918	59.24984248	33329	14.03201846	0.1098979
2010	337	0	-3.89	-1.07	0	141.7869422	117.1770329	33265	14.65848782	0.1907999
2010	338	0.56	-3.33	-0.51	0	141.1717228	105.6861222	33204	13.82443935	0.2740438
2010	339	1.11	-5	-0.57	0	208.3396032	135.5414228	33146	13.42845616	0.50472095
2010	340	0	-4.44	-1.22	0	185.6257966	181.157319	33092	13.59253759	0.20623515
2010	341	-1.67	-5.56	-2.74	0	148.6670345	112.8574196	33041	13.45663955	0.1377878
2010	342	-2.22	-6.67	-3.44	0	170.1421997	109.4410329	32993	12.92823298	0.22922835
2010	343	-2.22	-7.78	-3.75	0	169.1102716	141.160885	32949	13.37183198	0.41551585
2010	344	-1.11	-7.78	-2.94	0.8478	92.37163869	278.3194871	32909	16.20355584	0.5105757
2010	345	-1.11	-6.11	-2.49	0	125.3133763	68.04100754	32872	16.43809577	0.39699355
2010	346	3.33	-6.67	0.58	6.78475	53.99989583	214.0411109	32838	15.80673614	0.2116641
2010	347	6.67	-5.56	3.31	0.14025	286.7707843	43.10753475	32808	14.90557516	0.05145685
2010	348	-2.78	-10.56	-4.92	0.25175	157.1837901	185.3396376	32782	15.17518348	-0.0766025
2010	349	-6.11	-10	-7.18	0.0091	133.9123063	131.4019964	32759	15.21359784	-0.05030935
2010	350	-4.44	-10	-5.97	0.00675	116.3516088	142.4384239	32740	14.98838802	0.1552456
2010	351	-3.89	-10	-5.57	0	127.3264968	133.26696	32724	14.66260594	0.19644175
2010	352	-1.11	-6.67	-2.64	0	177.9268931	146.6265591	32712	14.89907624	0.5039758
2010	353	-0.56	-10.56	-3.31	0	125.3856509	173.7958048	32704	15.7636889	0.55113315
2010	354	-1.67	-11.11	-4.26	0.0354	122.916714	199.5150922	32699	14.9732668	0.61095805
2010	355	-1.67	-4.44	-2.43	0.0081	206.3356866	68.5882317	32698	14.614218	0.54708805
2010	356	1.67	-5	-0.17	0	258.9447398	261.5004434	32701	13.49151491	0.8471706
2010	357	2.78	-3.89	0.94	0.0417	253.2793513	154.8191213	32707	11.87901263	0.6723797
2010	358	1.11	-5	-0.57	0.0011	228.4464871	146.2933032	32717	15.97313402	0.2915016
2010	359	0.56	-5	-0.97	0.0005	180.6076639	237.0277718	32731	16.31416602	0.12362995
2010	360	-1.11	-6.11	-2.49	0.0301	171.8522103	95.08027726	32749	16.78215203	0.214006
2010	361	-2.78	-8.89	-4.46	0	194.8111694	94.07567897	32770	16.81213711	0.2255026
2010	362	-2.22	-8.89	-4.06	0.0014	193.5319113	263.7063792	32794	15.75287883	0.70420825
2010	363	1.11	-6.11	-0.88	0	209.7445961	213.9627993	32822	15.01406195	0.35015555
2010	364	4.44	-7.22	1.24	0.0145	149.7636122	237.5259634	32854	14.23876106	0.20176425
2010	365	3.33	-7.22	0.43	0	147.0148056	124.7939433	32889	14.1298882	0.10818949
					0					
					0					
					0					
					0					
					0					
					0					
					0					
					0					
					0					
					0					
					0					
					0					
					0					
					0					
					0					
					0					
					0					
					0					
					0					
					0					
					0					
					0					
					0					
					0					
					0					
					0					
					0					
					0					
					0					
					0					
					0					
					0					
					0					
					0					
					0					
					0.41					
					0					
					0.05					
					0.52					
					0					
					0					
					0					
					0					
					0					
					0					
					0					
					0					
					0					
					0					
					0					
					0					
					1.37					
					1.05					
					0.01					
					0.02					
					2.21					
					0					
					0					
					1.55					
					0					
					0					
					0					
					0					
					0.17					
					4.28					
					1.43					
					0					
					0.29					
					1.655					
					1.615					
					0					
					0					
					0					
					0.04					
					0.87					
					0					
					0					
					0					
					0					
					0.71					
					0					
					2.545					
					0.435					
					0					
					0					
					0					
					0					
					0					
					0.26					
					0.25					
					0.21					
					0					
					0.08					
					0.225					
					1.975					
					0.04					
					0					
					2.54					
					0.06					
					0					
					0.43					
					0.695					
					1.475					
					0					
					0					
					2.26					
					0.08					
					0					
					1.18					
					0					
					0					
					0.415					
					0.595					
					0.01					
					0					
					0.71					
					1.34					
					3.58					
					0					
					0					
					0.37					
					0.01					
					2.395					
					0.755					
					0.07					
					0					
					0					
					0					
					0					
					0					
					0					
					0					
					0					
					0.13					
					1.64					
					0.08					
					0.82					
					2.07					
					0.8					
					0.68					
					0.67					
					0					
					3.23					
					0					
					0					
					0.22					
					2.445					
					1.115					
					0.01					
					0					
					0					
					0					
					0					
					0					
					0.47					
					0					
					0					
					0					
					0					
					0.03					
					0.83					
					2.35					
					0.08					
					0					
					0.05					
					0					
					0.53					
					0.7					
					0					
					0					
					0					
					1.52					
					0.01					
					0.04					
					0.205					
					0.145					
					0					
					0					
					0					
					0					
					0					
					0					
					0					
					0					
					0					
					0					
					0					
					0					
					0.1					
					0					
					0					
					0					
					0					
					0					
					0					
					0					
					0					
					0					
					0					
					0					
					0					
					0					
					0					
					0					
					0					
					2.03					
					0					
					0					
					2.04					
					0.22					
					0					
					0					
					0					
					0.01					
					0.66					
					0					
					0					
					2.345					
					0.395					
					0					
					0.58					
					0					
					0					
					0					
					0.19					
					0.835					
					1.035					
					0.01					
					0					
					0					
					0.52					
					0					
					0.03					
					0					
					0					
					0					
					0.53					
					0					
					0.21					
					2.38					
					0					
					0					
					0					
					0.21					
					0					
					0					
					0.04					
					2.085					
					2.88					
					6.435					
					0.67					
					0.38					
					0.15					
					0.26					
					0					
					0					
					0					
					1.27					
					0					
					0					
					0					
					0					
					0.98					
					0.01					
					0					
					1.1					
					0					
					0					
					0					
					4.315					
					1.945					
					0.38					
					0					
					0.45					
					2.14					
					0.32					
					0.02					
					0.01					
					0					
					0					
					0					
					0					
					0					
					0					
					1.21					
					0.37					
					1.99					
					0.01					
					0.06					
					0.27					
					0					
					0.04					
					2.19					
					0					
					0					
					0					
					0.12					
					0					
					0.04					
					1					
					0.02					
					1.64					
					0.02					
					0					
					0					
					0.01					
					0					
					0					
					0					
					0					
					0					
					0.01					
					0.01					
					0.23					
					0.01					
					0					
					0					
					0.03					
					0.6					
					0.875					
					0.035					
					0					
					0					
					0					
					0.55					
					2.075					
					3.505					
					0					
					0					
					0					
					0.03					
					0					
					1.14					
					0.18					
					0					
					0					
					0					
					0					
					0					
					0.49					
					3.08					
					0.28					
					0					
					0					
					0.01					
					0					
					0					
					0.125					
					0.16					
					0.135					
					0					
					0.05					
					0					
					0.47					
					1.285					
					0.315					
					1.24					
					0					
					0					
					0.01					
					1.69					
					0.1					
					0					
					0.04					
					0.06					
